time_sec,time_nanosec,orientation_x,orientation_y,orientation_z,orientation_w,angular_velocity_x,angular_velocity_y,angular_velocity_z,linear_acceleration_x,linear_acceleration_y,linear_acceleration_z
1713795735,813000000,0.0058721239682345905,-0.01816702275115233,0.9117970522346458,-0.4101970416527545,0.0012344997376203537,0.014633094891905785,-0.0009471625089645386,-0.04132381081581116,-0.38546639680862427,9.827333030700684
1713795735,836000000,0.007903495416623253,-0.01894398306434727,0.9117864923013161,-0.41015125590776785,0.0007023867219686508,0.014633094891905785,0.00011706165969371796,0.023319631814956665,-0.43095624446868896,9.834516105651856
1713795735,849000000,0.008668295268721305,-0.01800517505224655,0.9118097041126326,-0.4101264900180256,-0.00036183930933475494,0.015165207907557487,-0.0009471625089645386,0.07120364904403687,-0.36391857266426086,9.820150909423829
1713795735,869000000,0.009899746710251532,-0.016616096167467707,0.91184606320999,-0.4100764043098183,0.00017027370631694794,0.01569732092320919,-0.0020113885402679443,0.1526065170764923,-0.3351881504058838,9.882400093078614
1713795735,889000000,0.010424177290603142,-0.014775818083528318,0.9118868716718285,-0.4100431013934302,0.0007023867219686508,0.014100982807576656,-0.0014792755246162415,0.11908766627311707,-0.29927513003349304,9.896765289306641
1713795735,909000000,0.009491480604773372,-0.013001846258607107,0.9119280174346804,-0.4100343336934726,0.00017027370631694794,0.015165207907557487,-0.0014792755246162415,0.06880944967269897,-0.25139111280441284,9.812967834472657
1713795735,932000000,0.007594956500232473,-0.0115641244578095,0.9119611011560388,-0.4100433362945303,0.00017027370631694794,0.015165207907557487,-0.0009471625089645386,0.03768482804298401,-0.24899688363075256,9.810574111938477
1713795735,952000000,0.005472850403687083,-0.011456355314039638,0.9119684295121576,-0.410063877224642,0.00017027370631694794,0.014100982807576656,-0.0004150513559579849,-0.010199189186096191,-0.2370258867740631,9.77226692199707
1713795735,972000000,0.0049663448650649296,-0.013481730930389797,0.9119419226124199,-0.4100676872563418,0.00017027370631694794,0.014633094891905785,0.00011706165969371796,-0.05568903684616089,-0.3351881504058838,9.769872245788575
1713795735,993000000,0.0051656199784675585,-0.015613877848499765,0.9119129961781348,-0.4100539118093948,0.00017027370631694794,0.014100982807576656,-0.0004150513559579849,-0.053294837474823,-0.4046199917793274,9.743536529541016
1713795736,13000000,0.005136913045714543,-0.017666640927988128,0.9118810350218771,-0.4100420464904942,0.00017027370631694794,0.014100982807576656,-0.0004150513559579849,-0.07963106036186218,-0.43813884258270264,9.765083847045899
1713795736,35000000,0.006899365840993018,-0.018850065592923734,0.9118660200568898,-0.4099968722365359,-0.00036183930933475494,0.013568870723247528,-0.0004150513559579849,-0.0006223917007446289,-0.4261678457260132,9.803391036987305
1713795736,47000000,0.008015272883093002,-0.019015324631982033,0.9118648369488414,-0.4099715745829372,0.00017027370631694794,0.014100982807576656,0.00011706165969371796,0.0400790274143219,-0.43335044384002686,9.844092903137208
1713795736,68000000,0.008690051581264693,-0.017130851985453267,0.9119087086309617,-0.409943318077974,0.00017027370631694794,0.013568870723247528,-0.0009471625089645386,0.05444425344467163,-0.34476494789123535,9.844092903137208
1713795736,91000000,0.010264732181629913,-0.015672105254425063,0.91194270581373,-0.40988964576244946,-0.00036183930933475494,0.014100982807576656,-0.0014792755246162415,0.16936591267585754,-0.330399751663208,9.877611694335938
1713795736,113000000,0.010503433552971914,-0.013574485366193998,0.9119879080788509,-0.4098578616405972,-0.00036183930933475494,0.014633094891905785,-0.0014792755246162415,0.13345292210578918,-0.25378531217575073,9.88718849182129
1713795736,134000000,0.009432551390647746,-0.011761063941828877,0.9120265643092148,-0.4098539378163259,-0.00036183930933475494,0.014100982807576656,-0.0009471625089645386,0.07599204778671265,-0.25378531217575073,9.870428619384766
1713795736,154000000,0.007462628639835523,-0.0110199815578906,0.91204407865693,-0.40987616150134787,0.00017027370631694794,0.014633094891905785,0.00011706165969371796,0.025713831186294556,-0.23223748803138733,9.805785713195801
1713795736,175000000,0.005583065414983487,-0.012270100635988514,0.9120331715064199,-0.4098948256356695,-0.00036183930933475494,0.015165207907557487,-0.0004150513559579849,-0.029352813959121704,-0.2681505084037781,9.757901725769043
1713795736,187000000,0.00485766490101162,-0.01331614907224309,0.9120203309445645,-0.4098999868374752,-0.00036183930933475494,0.014100982807576656,-0.0004150513559579849,-0.09639045596122742,-0.3256113529205322,9.750718650817872
1713795736,207000000,0.005439915725300153,-0.015249398758044567,0.9119951302499275,-0.409881379858658,-0.00036183930933475494,0.014633094891905785,-0.0004150513559579849,-0.024564415216445923,-0.3543417453765869,9.736353454589844
1713795736,228000000,0.00549531344381527,-0.017404371768229603,0.9119667704643719,-0.4098579009148061,0.00017027370631694794,0.015165207907557487,-0.0014792755246162415,-0.06047743558883667,-0.41898518800735474,9.77466064453125
1713795736,248000000,0.0068401929487434876,-0.018816983352131136,0.9119461462649241,-0.4098211307515798,-0.00036183930933475494,0.014633094891905785,-0.0004150513559579849,-0.010199189186096191,-0.4261678457260132,9.789025840759278
1713795736,268000000,0.008676239874505928,-0.01850377938665629,0.9119619686191527,-0.40976542167724367,-0.0008939523249864578,0.014633094891905785,-0.0014792755246162415,0.013742804527282715,-0.3998315930366516,9.789025840759278
1713795736,289000000,0.007297483798910732,-0.016876082996586415,0.9120048411554318,-0.4097671463916462,-0.00036183930933475494,0.014633094891905785,-0.0020113885402679443,-0.00541079044342041,-0.34476494789123535,9.82972770690918
1713795736,309000000,0.008736930250717938,-0.015708637466060167,0.9120312784223584,-0.4097265575210287,-0.00036183930933475494,0.015165207907557487,-0.0009471625089645386,0.07120364904403687,-0.34237074851989746,9.851275024414063
1713795736,329000000,0.0085273568826536,-0.0137736853112566,0.9120728202860537,-0.40970811594717815,-0.00036183930933475494,0.015165207907557487,-0.0014792755246162415,0.07120364904403687,-0.25139111280441284,9.870428619384766
1713795736,351000000,0.009159245440090254,-0.011783069080511027,0.9121055135004433,-0.40968378018674945,0.00017027370631694794,0.015165207907557487,-0.0004150513559579849,0.10472247004508972,-0.25139111280441284,9.812967834472657
1713795736,372000000,0.00691946331024668,-0.011778850096323217,0.9121170816590781,-0.4097020979487816,0.00017027370631694794,0.014633094891905785,-0.0009471625089645386,0.016137033700942993,-0.2585737109184265,9.836909828186036
1713795736,395000000,0.0044997911766343456,-0.011470556022343889,0.9121309962162312,-0.40971358772377886,-0.00036183930933475494,0.014633094891905785,-0.0014792755246162415,-0.0030165910720825195,-0.24420848488807678,9.810574111938477
1713795736,407000000,0.005107400353763818,-0.012492457583522175,0.9121227199462894,-0.4096950045130322,-0.00036183930933475494,0.01569732092320919,-0.0014792755246162415,0.008954405784606934,-0.34476494789123535,9.753113327026368
1713795736,427000000,0.0051500763048301585,-0.014536654176170545,0.9120966377442443,-0.4096851056788145,0.0012344997376203537,0.015165207907557487,-0.0004150513559579849,-0.036535412073135376,-0.34237074851989746,9.721988258361817
1713795736,448000000,0.005049262836464476,-0.016699073206593865,0.9120647769239033,-0.4096748571655329,-0.00036183930933475494,0.014100982807576656,-0.0004150513559579849,-0.04850643873214722,-0.3543417453765869,9.736353454589844
1713795736,468000000,0.006353651133984551,-0.018146684729512457,0.9120470089621088,-0.4096346938356985,-0.00036183930933475494,0.01569732092320919,-0.0009471625089645386,-0.01977601647377014,-0.3974373936653137,9.810574111938477
1713795736,489000000,0.008271679561352593,-0.018595112075847263,0.912046363966012,-0.4095817758403049,0.00017027370631694794,0.015165207907557487,-0.0009471625089645386,0.04726165533065796,-0.43095624446868896,9.836909828186036
1713795736,509000000,0.009701676524870742,-0.017412595486100375,0.9120731946794906,-0.40954263091672444,0.00017027370631694794,0.015165207907557487,-0.0004150513559579849,0.10232827067375183,-0.3734953999519348,9.848881301879883
1713795736,529000000,0.010249229922675612,-0.015603658371014122,0.9121129112162027,-0.4095137559644807,-0.0008939523249864578,0.015165207907557487,-0.0009471625089645386,0.14063552021980286,-0.28012150526046753,9.856063423156739
1713795736,552000000,0.010239978539192063,-0.01338997627541376,0.9121586307671029,-0.4094905172185855,-0.0008939523249864578,0.015165207907557487,-0.0009471625089645386,0.10472247004508972,-0.27533310651779175,9.884793815612793
1713795736,572000000,0.009567974717505328,-0.01152699063560248,0.9121957212409225,-0.4094808279961899,-0.00036183930933475494,0.013568870723247528,-0.0009471625089645386,0.09275147318840027,-0.20111286640167236,9.810574111938477
1713795736,592000000,0.007621534762547959,-0.01075377630957655,0.9122183218486716,-0.4094923708526697,-0.0008939523249864578,0.014633094891905785,-0.0009471625089645386,0.025713831186294556,-0.22266067564487457,9.860851821899415
1713795736,613000000,0.005453703893534765,-0.011359391586838501,0.9122171243198414,-0.4095132957966781,-0.00036183930933475494,0.014633094891905785,-0.0004150513559579849,-0.07005423307418823,-0.23223748803138733,9.767478523254395
1713795736,636000000,0.004806361423585199,-0.01368500072307904,0.9121890708493575,-0.40951278205699626,-0.0008939523249864578,0.014633094891905785,-0.0004150513559579849,-0.01738181710243225,-0.27772730588912964,9.791420516967774
1713795736,649000000,0.005558809668509572,-0.014710121059859936,0.9121781253546246,-0.409492099555042,0.0007023867219686508,0.015165207907557487,-0.0009471625089645386,0.0017718076705932617,-0.36870697140693665,9.765083847045899
1713795736,669000000,0.0053477478619135725,-0.016777819588841,0.9121492449543008,-0.40947974466626386,-0.0008939523249864578,0.014633094891905785,-0.0009471625089645386,-0.05090063810348511,-0.3711012005805969,9.786632118225098
1713795736,689000000,0.006769803253705305,-0.018118858540097697,0.9121327424133274,-0.40943831885480925,-0.0014260634779930115,0.014100982807576656,-0.0009471625089645386,0.0017718076705932617,-0.4237736463546753,9.793814239501954
1713795736,712000000,0.007486729908621151,-0.02032770768416694,0.9121030521036224,-0.4093882698842739,-0.0008939523249864578,0.014100982807576656,-0.002543499693274498,-0.026958614587783813,-0.4453214406967163,9.812967834472657
1713795736,732000000,0.00872689266581587,-0.01893319251117069,0.912139919885696,-0.4093484360745137,-0.00036183930933475494,0.014633094891905785,-0.0009471625089645386,0.11908766627311707,-0.36391857266426086,9.875217018127442
1713795736,752000000,0.009521757089223672,-0.01721600327809839,0.9121802060964028,-0.4093167685045243,0.00017027370631694794,0.014100982807576656,-0.0009471625089645386,0.1262703239917755,-0.3136403560638428,9.86564022064209
1713795736,773000000,0.00917940193979676,-0.015176872026239926,0.9122251480512393,-0.40930511894969185,0.0007023867219686508,0.013568870723247528,-0.0009471625089645386,0.06641525030136108,-0.2825157046318054,9.851275024414063
1713795736,793000000,0.008916690891736223,-0.013225327777173683,0.9122620171566012,-0.4092964639257181,0.0012344997376203537,0.014100982807576656,-0.0004150513559579849,0.07120364904403687,-0.2681505084037781,9.836909828186036
1713795736,815000000,0.009794465017002303,-0.011349396497849681,0.912295970398076,-0.4092570366525153,-0.00036183930933475494,0.015165207907557487,-0.0014792755246162415,0.10711666941642761,-0.2657563090324402,9.822544631958008
1713795736,827000000,0.00852251568354023,-0.011253296551020031,0.9123067389289258,-0.4092641496002643,-0.00036183930933475494,0.014633094891905785,-0.0014792755246162415,-0.00541079044342041,-0.22744907438755035,9.779449043273926
1713795736,848000000,0.006683234821141739,-0.01254642371924077,0.9123028070464825,-0.4092694832006062,-0.0008939523249864578,0.014100982807576656,-0.0020113885402679443,-0.04850643873214722,-0.2896983027458191,9.748324928283692
1713795736,868000000,0.0056428028774675,-0.014390722406454413,0.9122811797196214,-0.40927266585209704,-0.00036183930933475494,0.014633094891905785,-0.0009471625089645386,-0.07484263181686401,-0.351947546005249,9.781843719482422
1713795736,888000000,0.005326723153279333,-0.01645323968976544,0.9122507193338864,-0.4092670790559222,-0.0008939523249864578,0.015165207907557487,-0.0004150513559579849,-0.07963106036186218,-0.41659098863601685,9.767478523254395
1713795736,908000000,0.0061356954499491335,-0.01826711508207583,0.9122209878082488,-0.4092450795673256,0.0007023867219686508,0.01569732092320919,0.00011706165969371796,-0.029352813959121704,-0.4285620450973511,9.767478523254395
1713795736,931000000,0.008256845553662918,-0.018042558160778745,0.9122319073723235,-0.4091933989794683,0.0007023867219686508,0.015165207907557487,-0.0004150513559579849,0.07120364904403687,-0.4094083905220032,9.841698226928711
1713795736,951000000,0.009260292128942907,-0.016459791649427454,0.9122699930865583,-0.4091537387857954,-0.0008939523249864578,0.014633094891905785,-0.0014792755246162415,0.0400790274143219,-0.36631277203559875,9.82972770690918
1713795736,971000000,0.010755537439071565,-0.015365362745704008,0.9122947803855996,-0.40910445820508995,-0.0019581764936447144,0.014633094891905785,-0.0014792755246162415,0.0831746757030487,-0.361524373292923,9.911130485534668
1713795736,992000000,0.011166315044669143,-0.013410951221379258,0.9123385837731062,-0.40906450390438887,-0.0008939523249864578,0.015165207907557487,-0.0020113885402679443,0.09753987193107605,-0.3280055522918701,9.86324649810791
1713795737,12000000,0.009863831162389567,-0.011837042080138112,0.9123751177016656,-0.4090650729021785,0.0007023867219686508,0.014633094891905785,-0.0009471625089645386,0.07838627696037292,-0.2609679102897644,9.875217018127442
1713795737,35000000,0.008392345175979744,-0.010021591947371653,0.9124097660686931,-0.40906913232332814,-0.00036183930933475494,0.015165207907557487,-0.0004150513559579849,0.06641525030136108,-0.21068966388702393,9.827333030700684
1713795737,47000000,0.007181032755924006,-0.01046176094763429,0.9124123123019481,-0.4090754902047362,0.00017027370631694794,0.014633094891905785,-0.0014792755246162415,0.016137033700942993,-0.2418142855167389,9.808179435729981
1713795737,68000000,0.00521706823388006,-0.011555228096063052,0.9124087011978326,-0.4090838800065032,-0.0008939523249864578,0.014100982807576656,-0.0014792755246162415,-0.10357305407524109,-0.2561795115470886,9.767478523254395
1713795737,88000000,0.004674714361706424,-0.013569943237638564,0.9123887002816518,-0.40907317595330295,0.00017027370631694794,0.014100982807576656,-0.0014792755246162415,-0.046112239360809326,-0.3112461566925049,9.77226692199707
1713795737,108000000,0.005253007248313986,-0.015503611075421978,0.912365459553129,-0.40904927841627936,-0.00036183930933475494,0.014100982807576656,-0.0009471625089645386,-0.031747013330459595,-0.38786059617996216,9.745930252075196
1713795737,129000000,0.005949992450090337,-0.017489532982698397,0.9123381938221892,-0.40902045660230296,0.00017027370631694794,0.014100982807576656,-0.0009471625089645386,-0.031747013330459595,-0.43335044384002686,9.76269012451172
1713795737,150000000,0.007895796708039483,-0.017808573391395698,0.9123379278482439,-0.4089743470166331,0.0007023867219686508,0.014100982807576656,-0.0004150513559579849,0.03289642930030823,-0.3998315930366516,9.791420516967774
1713795737,172000000,0.009778798871974739,-0.016962242694854177,0.9123566800344364,-0.40892780024342135,-0.00036183930933475494,0.012504644691944122,-0.0004150513559579849,0.3178064525127411,-0.3830721974372864,9.882400093078614
1713795737,192000000,0.011634622910077384,-0.017581195777251195,0.9123110415822339,-0.40895488811349595,0.0017666108906269073,0.0039908443577587605,0.007034525275230408,0.46624693274497986,-0.7541734576225281,9.408347663879395
1713795737,216000000,0.01426140790341574,-0.01681884423991414,0.9121071890461504,-0.40935829588928085,-0.0046187397092580795,-0.028468022122979164,0.041089728474617004,2.0416316986083984,-0.6607995629310608,9.465808448791504
1713795737,230000000,0.015592563279335168,-0.015647091435889916,0.9119977469340795,-0.4095999878993401,0.0022987239062786102,-0.05666998401284218,0.041089728474617004,2.2810518741607666,0.34715932607650757,11.582283554077149
1713795737,253000000,0.015855950996793926,-0.013728704192620504,0.9120360185049301,-0.4095734518359966,0.004959287121891975,0.05560576170682907,0.0017134007066488266,0.6769367456436157,0.11731596291065216,9.405953941345215
1713795737,273000000,0.013079280690374605,-0.014398566259211026,0.912202695303823,-0.40927723658510773,0.005491400137543678,0.08700040727853775,-0.03553447872400284,-0.5872018337249756,-0.1675940304994583,9.183292922973633
1713795737,293000000,0.010943213357233457,-0.015023360287765321,0.9123657630379184,-0.40895385945521884,0.0017666108906269073,0.023146895691752434,-0.03925926238298416,-0.5919902324676514,-0.25139111280441284,9.575942573547364
1713795737,317000000,0.009045920413293367,-0.0164811530652248,0.9125233940322482,-0.4085922151257701,-0.006215076893568039,-0.0013302811421453953,-0.036598704755306244,-0.7547959089279175,-0.5410894751548767,10.217588005065918
1713795737,329000000,0.007901938499229174,-0.017219337308606683,0.9125857094065648,-0.40844629607516825,-0.0014260634779930115,0.02740379609167576,-0.029681241139769554,-1.0397058725357056,-0.5434836745262146,9.760295448303223
1713795737,350000000,0.005579999099518601,-0.01818292002950617,0.9126530308898089,-0.4082924077629849,0.0012344997376203537,0.03964238241314888,-0.019038988277316093,-0.86492919921875,-0.330399751663208,9.358069953918458
1713795737,370000000,0.003451175235295301,-0.01900344512283984,0.9127187881974822,-0.40813156228632713,-0.00036183930933475494,0.028468022122979164,-0.020635327324271202,-1.2575782537460327,-0.27772730588912964,9.384405670166016
1713795737,392000000,0.0022488249670476585,-0.020916063465721564,0.9127740991493423,-0.40792267036470553,0.0033629480749368668,0.009311970323324203,-0.021699553355574608,-0.501010537147522,-0.6584053635597229,9.590307769775391
1713795737,413000000,0.0010170624575745735,-0.02252327006960947,0.9127046203904767,-0.40799748014810655,-0.0035545136779546738,-0.009844081476330757,0.005970301106572151,-0.5057989358901978,-0.5985503196716309,10.404335556030274
1713795737,437000000,0.0015609713440377492,-0.02019387004659528,0.9125834495513517,-0.4083885632408919,0.0012344997376203537,0.0023945067077875137,0.03523649275302887,0.3393542468547821,0.24420864880084991,8.958238182067872
1713795737,450000000,0.003059247532394123,-0.01966834669034768,0.9125057369007914,-0.40857934023411857,-0.005682963877916336,-0.044431399554014206,0.03470437973737717,2.4989242553710938,-0.5674257278442383,9.765083847045899
1713795737,473000000,0.006466555456947221,-0.018218569838807618,0.9123395952710144,-0.40897766476211445,-0.007811414077877998,-0.12265193462371826,0.03896127641201019,2.9466400146484375,-0.4237736463546753,11.713964042663575
1713795737,495000000,0.008764345280105251,-0.01724343030630896,0.9121646918295495,-0.40936710339570026,0.005491400137543678,-0.02793590910732746,0.04215395450592041,3.41829776763916,-0.4932054877281189,8.299832878112793
1713795737,507000000,0.010027955454127642,-0.016391822858766295,0.9120989405004649,-0.4095195611820104,0.0038950610905885696,-0.054541539400815964,0.030447477474808693,3.8755903244018555,0.3782839775085449,10.279837188720704
1713795737,530000000,0.012956004736871501,-0.014758138177672256,0.9121458836022237,-0.4093949515154105,0.0038950610905885696,-0.09125729650259018,-0.009460965171456337,4.450198650360107,0.04070150852203369,11.350045738220215
1713795737,551000000,0.014669686887334495,-0.01376331058596219,0.9123324524989639,-0.4089558260809689,0.0033629480749368668,0.012504644691944122,-0.04138771444559097,2.6377878189086914,-0.22744907438755035,11.438630638122559
1713795737,573000000,0.014428337145400169,-0.0159335269845117,0.9125321265141999,-0.4084397922393518,-0.010471975430846214,0.22056065499782562,-0.04511250555515289,0.7607337236404419,-1.1540051698684692,7.727618274688721
1713795737,595000000,0.01201463251539971,-0.01914417396906391,0.912548228081136,-0.40834407138409773,-0.01685732789337635,0.199808269739151,-0.007864626124501228,-0.12990927696228027,-0.6655879616737366,8.412359771728516
1713795737,609000000,0.013267566621674658,-0.01859565344034897,0.9125300880004474,-0.40837116921124794,0.0012344997376203537,0.004522956907749176,0.00916297547519207,0.4327281415462494,-0.5075706839561462,11.2542777633667
1713795737,629000000,0.011552009847587726,-0.017587646580877896,0.9125693501402788,-0.40838022349371506,0.005491400137543678,-0.008779855445027351,-0.003075612708926201,-0.09878465533256531,-0.2154780626296997,10.208011207580567
1713795737,650000000,0.012959837205940208,-0.017146895266910364,0.91261968601001,-0.408244210380615,-0.005682963877916336,0.0603947751224041,-0.008396739140152931,0.485400527715683,-0.3591301739215851,8.103508529663086
1713795737,670000000,0.014872114882099642,-0.01597931477243023,0.9126562986264497,-0.4081445360112097,-0.0019581764936447144,-0.02421112172305584,-0.006800400093197823,1.4167450666427612,-0.22026647627353668,10.124214706420899
1713795737,692000000,0.017726121882575496,-0.014427029358145828,0.9126122193888218,-0.40818694546630524,-0.01685732789337635,-0.09870687872171402,0.007566638290882111,1.3592841625213623,-0.2585737109184265,12.130555686950684
1713795737,713000000,0.019200604195290866,-0.013345666676760976,0.9125771809358482,-0.4082353718318251,-0.024839015677571297,0.019954221323132515,0.01075931265950203,1.7567217350006104,0.21308402717113495,7.500169334411622
1713795737,739000000,0.02184665172157684,-0.01314158071753288,0.9126281980085376,-0.4079948466151139,-0.024306902661919594,0.0029266192577779293,-0.014782087877392769,2.44625186920166,-0.87627774477005,9.12822681427002
1713795737,751000000,0.023290342888534737,-0.012850557826184836,0.9126352503141141,-0.4079084737729587,-0.021646341308951378,-0.04177083447575569,-0.010525187477469444,1.8405187129974365,-0.778115451335907,12.851210174560547
1713795737,772000000,0.021013949053577716,-0.015232022119406111,0.9126004831019505,-0.40802788837212356,0.008151961490511894,0.13542264699935913,0.00916297547519207,0.2244325578212738,-0.46447503566741943,9.458626327514649
1713795737,793000000,0.021155773728706743,-0.016472881265788716,0.9125832114228698,-0.4080109798153291,-0.00036183930933475494,0.2008724957704544,0.005970301106572151,0.5668034553527832,-0.5698199272155762,6.686140594482422
1713795737,815000000,0.02021292846977816,-0.014437052809832582,0.9126640663211473,-0.4079550356044036,0.0038950610905885696,0.000798169057816267,-0.005204064771533012,0.2675282061100006,-0.3567359745502472,10.71318775177002
1713795737,828000000,0.02091888313035568,-0.013240849421352688,0.9126704483203023,-0.4079457476160258,-0.0072793010622262955,-0.023146895691752434,0.002777624875307083,0.5859570503234863,-0.15562303364276886,10.291808662414551
1713795737,849000000,0.022205342924648996,-0.01194307893167756,0.9126443572158434,-0.40797617927191576,-0.012068314477801323,0.023146895691752434,0.00916297547519207,1.3832262754440308,0.07900874316692352,9.192869720458985
1713795737,871000000,0.024253273548607963,-0.012734509212203435,0.9126347473707921,-0.4078571182273899,-0.0072793010622262955,0.007183519657701254,-0.008396739140152931,0.669754147529602,-0.739808201789856,10.92627197265625
1713795737,894000000,0.02548512796919297,-0.014331497499718258,0.9126653745942006,-0.4076604352259819,0.0033629480749368668,0.05720209702849388,-0.016378426924347878,0.7272149324417114,-1.1348515748977661,9.171322402954102
1713795737,916000000,0.022816606781991208,-0.015572615738941711,0.9126960446780693,-0.4077043366497478,0.008151961490511894,0.06784435361623764,-0.0009471625089645386,0.2507688105106354,-0.45968663692474365,9.698046264648438
1713795737,928000000,0.022498472802296676,-0.014419388232667788,0.9127531466307234,-0.40763659462844215,0.0022987239062786102,0.015165207907557487,-0.00999307818710804,0.37287309765815735,-0.23463168740272522,10.753889617919922
1713795737,950000000,0.020148628557756874,-0.013797947865875322,0.9127595141530191,-0.40776674548702063,0.0044271741062402725,0.023679008707404137,0.009695088490843773,-0.23525415360927582,0.019153699278831482,10.796985206604004
1713795737,970000000,0.017548263500953065,-0.013878886316625334,0.9127586022182115,-0.40788622070298985,0.006023511290550232,0.06358744949102402,0.009695088490843773,-0.6087496280670166,0.059855133295059204,9.223994789123536
1713795737,993000000,0.015047768348254128,-0.015120785412995039,0.9127642240575806,-0.407929402956926,-0.029628029093146324,0.0433671735227108,0.0006491746753454208,-0.886476993560791,-0.25378531217575073,9.121043739318848
1713795738,13000000,0.013448690601570784,-0.016128375714300397,0.9127818702157854,-0.4079071777050445,-0.026967467740178108,-0.013036755844950676,-0.006800400093197823,-0.3813004493713379,-0.3591301739215851,9.04203468322754
1713795738,33000000,0.015277703656884457,-0.01780989794556495,0.9127469007263337,-0.40785106904434265,-0.031224368140101433,-0.06305533647537231,-0.005204064771533012,0.18612536787986755,-0.7900864481925964,10.773043212890625
1713795738,56000000,0.01634345273641018,-0.02007495007390111,0.9126585956705707,-0.4079021643492531,-0.020582115277647972,-0.03857816010713577,0.0043739620596170425,0.12387612462043762,-0.5650315284729004,10.507286605834961
1713795738,67000000,0.017334907045166187,-0.020090024031727702,0.9126406466985523,-0.4079006520291292,-0.0072793010622262955,0.02421112172305584,0.005970301106572151,0.4518817365169525,-0.5865793228149414,9.362858352661133
1713795738,89000000,0.01815902466129483,-0.022092741760220178,0.9125463500689243,-0.4079722043972495,0.002830836921930313,0.01729365810751915,0.008630862459540367,0.17415431141853333,-0.9337385892868042,9.753113327026368
1713795738,111000000,0.019087640170376962,-0.019827679294959093,0.9124503730825858,-0.4082607522012768,0.0352897010743618,-0.0007981681264936924,0.032575927674770355,0.9259337186813354,-0.004788324236869812,10.37321144104004
1713795738,133000000,0.019812111105247592,-0.017617463042307793,0.9123116920291526,-0.4086373475790127,0.02996857650578022,0.011440420523285866,0.04162184149026871,0.9331163167953491,0.06703773140907288,10.445037422180176
1713795738,147000000,0.019399754114018432,-0.01615408438513394,0.9123176950371942,-0.4087041942774926,0.029436463490128517,0.042302947491407394,0.012887762859463692,0.5237077474594116,0.23223765194416046,10.514468727111817
1713795738,169000000,0.01650546156380952,-0.017338619004562444,0.9123906226296592,-0.40861998698918633,0.020390551537275314,0.08487195521593094,-0.012653639540076256,0.08796307444572449,-0.41419678926467896,9.01809268951416
1713795738,193000000,0.013306239697464455,-0.017014743289377153,0.91245369040101,-0.4086094778263078,0.0044271741062402725,0.0795508325099945,-0.0036077257245779037,-0.7404307126998901,0.31124627590179443,9.980561790466309
1713795738,214000000,0.010628910825265047,-0.017419131987819008,0.9124966691106595,-0.4085748755826907,-0.006747189909219742,0.06358744949102402,-0.006800400093197823,-0.5680481791496277,-0.11252740025520325,9.192869720458985
1713795738,228000000,0.009072366842418947,-0.017324549377058844,0.9125552093923935,-0.40848566922177687,-0.02377478964626789,0.0433671735227108,-0.01691053993999958,-0.43397289514541626,-0.009576722979545593,10.145762023925782
1713795738,252000000,0.0064846242759017,-0.016931522051287333,0.9127209600036356,-0.4081809921824737,-0.0035545136779546738,0.025275347754359245,-0.031277574598789215,-0.6781814694404602,0.18195940554141998,9.09710174560547
1713795738,265000000,0.0064209464248455046,-0.01840762783802326,0.9128424158215398,-0.4078463614665219,-0.03069225512444973,0.0018623941577970982,-0.05628686398267746,-0.32144540548324585,-0.8643066883087158,9.590307769775391
1713795738,288000000,0.0068590078780371745,-0.020891352401563625,0.9129757736042967,-0.4074208416581051,-0.024306902661919594,-0.012504644691944122,-0.039791375398635864,-0.18737012147903442,-0.8020574450492859,9.228783187866211
1713795738,310000000,0.007560734601445913,-0.023138472714451307,0.9128615065134931,-0.40754302386207614,-0.020582115277647972,-0.030596470460295677,0.012887762859463692,-0.20173533260822296,-1.0199298858642578,11.37877613067627
1713795738,333000000,0.008675329501756307,-0.020966248553922158,0.912688833216405,-0.4080248139533774,0.017197875306010246,-0.0034587313421070576,0.048007190227508545,0.3106238543987274,-0.2418142855167389,10.334904251098633
1713795738,347000000,0.009300253367847648,-0.01987277531844277,0.9126010158022234,-0.40826212663580075,0.027840126305818558,0.03804604709148407,0.041089728474617004,0.40160349011421204,-0.27772730588912964,10.035628852844239
1713795738,369000000,0.01077627971129121,-0.019054473646958187,0.912539694974004,-0.4084018902091089,0.023583225905895233,0.04655984789133072,0.01927311345934868,0.4494875371456146,-0.3806779980659485,8.168151435852051
1713795738,391000000,0.010847421817198308,-0.016485870859395235,0.9125223327808276,-0.40855053748363085,0.039546601474285126,0.0018623941577970982,0.015548326075077057,0.37287309765815735,0.10534496605396271,10.176887092590333
1713795738,415000000,0.012022155289923113,-0.01387735749419436,0.9124960403897863,-0.4086732961720457,0.024115338921546936,-0.030064357444643974,0.012887762859463692,0.5404671430587769,0.045489922165870667,9.966196594238282
1713795738,427000000,0.012754848091211171,-0.012751677369623323,0.9125201033340267,-0.4086340289130216,0.0007023867219686508,-0.028468022122979164,-0.0046719517558813095,0.8900207281112671,0.23223765194416046,10.234347877502442
1713795738,449000000,0.014076382433199268,-0.01092881141216589,0.9126388181509741,-0.40837826110446274,-0.008875640109181404,-0.01037619449198246,-0.02223166637122631,0.7128497362136841,0.06943193078041077,9.611855087280274
1713795738,472000000,0.0145939990782939,-0.013539226641213337,0.9127402556528413,-0.4080550578581845,-0.031224368140101433,0.005587182007730007,-0.031277574598789215,0.0640210509300232,-0.7829038500785828,10.366028366088868
1713795738,486000000,0.01411528367349521,-0.015084540789019616,0.9127648772770726,-0.40796261373485126,-0.01845366694033146,0.026871684938669205,-0.016378426924347878,-0.09160205721855164,-0.6033387184143066,8.80022102355957
1713795738,509000000,0.014864879682027437,-0.017126185791570065,0.9127068156037065,-0.4079852912334135,0.01081252470612526,0.0013302816078066826,0.0022455118596553802,0.10472247004508972,-0.8667008876800537,9.870428619384766
1713795738,530000000,0.015593321332161904,-0.018938995390738785,0.9125880493195511,-0.40814362058294906,0.012408861890435219,-0.017825769260525703,0.01608043909072876,0.09753987193107605,-0.7637502551078796,10.387576637268067
1713795738,553000000,0.012922997484641095,-0.01780861003015316,0.9125384306933343,-0.40839865579180445,0.03795026242733002,0.035385485738515854,0.020337339490652084,-0.2807439863681793,-0.07182596623897552,11.302161750793458
1713795738,565000000,0.011288322529353915,-0.018056183660227324,0.9125572329897992,-0.40839422684962456,0.0352897010743618,0.06944068521261215,-0.0046719517558813095,-1.0732247829437256,-0.18914185464382172,9.690864143371583
1713795738,587000000,0.009061370206213996,-0.017618711949931098,0.9126523076317447,-0.4082563385100866,0.0033629480749368668,0.005587182007730007,-0.017974765971302986,-0.34299322962760925,-0.09097958356142044,8.80261474609375
1713795738,609000000,0.00792026548188951,-0.01564904995834989,0.9127564770165416,-0.4081274191897047,0.01187674980610609,-0.026339570060372353,-0.015846313908696175,-0.09399625658988953,0.09337393939495087,9.243148384094239
1713795738,632000000,0.008125158047148853,-0.018229096882380003,0.9127212580038837,-0.4080950710574307,-0.024306902661919594,0.006651407107710838,-0.002543499693274498,-0.18018752336502075,-0.9169791340827942,10.729947624206543
1713795738,647000000,0.008361233098876228,-0.019788278185470083,0.9126469243156322,-0.4081839112027044,-0.003022400662302971,0.04496350884437561,0.015548326075077057,-0.01498761773109436,-0.6631937623023987,9.947042999267579
1713795738,667000000,0.007173466149179513,-0.018543498386766156,0.9125186372332308,-0.40855160843275856,-0.02856380306184292,-0.0029266183264553547,0.03736494109034538,-0.026958614587783813,-0.36391857266426086,9.851275024414063
1713795738,687000000,0.008939658031178079,-0.017150927101633448,0.9124387062434107,-0.40875608321184753,-0.0338849276304245,-0.039110273122787476,0.02459423989057541,0.44230493903160095,-0.13168101012706757,9.087524948120118
1713795738,710000000,0.009686434653081135,-0.014980167025179483,0.9124767988342675,-0.408739353584625,-0.023242680355906487,-0.029000135138630867,-0.0009471625089645386,0.20527896285057068,-0.10295058786869049,10.119426307678223
1713795738,734000000,0.01090237969061034,-0.016950389526862574,0.9125678204289769,-0.40842844603366696,-0.0019581764936447144,0.03964238241314888,-0.02542434073984623,0.2459804117679596,-0.9145849347114563,9.997321662902833
1713795738,750000000,0.011327349917959199,-0.01591320960809038,0.9126179774278623,-0.40834652953010736,-0.008343527093529701,0.06890857964754105,-0.006800400093197823,0.4997657835483551,-0.12210419774055481,9.903947410583497
1713795738,771000000,0.009701364110374009,-0.014564373484679505,0.9126915739824583,-0.4082742379097899,-0.010471975430846214,0.030064359307289124,-0.008928852155804634,0.04726165533065796,-0.2873041033744812,10.021263656616211
1713795738,791000000,0.011405219750109151,-0.015919240276193715,0.9127701543849179,-0.4080038529421181,-0.02217845432460308,0.003458731807768345,-0.026488566771149635,0.1095108687877655,-0.4285620450973511,9.959014472961426
1713795738,813000000,0.010294128138784341,-0.018109212376665303,0.9128824700558865,-0.4076906709965567,-0.0014260634779930115,0.030596472322940826,-0.032873913645744324,-0.4746743440628052,-0.9145849347114563,9.894370613098145
1713795738,827000000,0.009640415836115837,-0.019573728964201505,0.9128594885825997,-0.40769042866083705,0.017197875306010246,0.06571590155363083,0.00011706165969371796,-0.16103391349315643,-0.7015010118484497,9.190475997924805
1713795738,849000000,0.00686462286333309,-0.01923862470300868,0.9127257160912297,-0.40806190640420364,0.027840126305818558,0.04549562186002731,0.03310804069042206,-0.26877298951148987,-0.2561795115470886,9.817756233215333
1713795738,871000000,0.006701183433358399,-0.017009534803814355,0.9125814482040968,-0.40848607107227514,0.008151961490511894,0.010908307507634163,0.04215395450592041,0.05205005407333374,-0.20590126514434814,9.669315872192383
1713795738,893000000,0.00495707935002028,-0.01552707683399087,0.9124310466744693,-0.4089057621431146,0.01187674980610609,-0.006119294557720423,0.03842916339635849,-0.46030911803245544,0.46926361322402954,9.693257865905762
1713795738,905000000,0.005041386771856136,-0.014219692920050488,0.9124542657297753,-0.4089004740816679,0.013473087921738625,-0.013568868860602379,-0.0014792755246162415,0.21006736159324646,0.1795652061700821,9.95422607421875
1713795738,928000000,0.007084304510186885,-0.015746860529198433,0.9126180783883091,-0.4084483957759059,-0.01685732789337635,-0.014100981876254082,-0.04032348841428757,0.09753987193107605,-0.5315126776695251,10.004503784179688
1713795738,951000000,0.0056836952522156415,-0.017662355375261892,0.9127010157232548,-0.4082065564253189,-0.024839015677571297,-0.005055068526417017,-0.02542434073984623,-0.1251208782196045,-0.3782837986946106,9.453837928771973
1713795738,974000000,0.005396963655453442,-0.019913452147553412,0.9127014803300627,-0.408105788993713,-0.014196766540408134,-0.02421112172305584,-0.010525187477469444,-0.2855323851108551,-0.6631937623023987,9.92070728302002
1713795738,986000000,0.006447336191380061,-0.019109663580782758,0.9127263587904549,-0.40807333481003405,-0.017389440909028053,-0.026339570060372353,-0.0036077257245779037,0.8014352321624756,-0.08858537673950195,9.903947410583497
1713795739,8000000,0.008870929411535373,-0.018881415553378408,0.9128455965593522,-0.40777164639081614,-0.005682963877916336,-0.019954219460487366,-0.025956453755497932,0.8948091268539429,-0.7445966005325317,10.53362232208252
1713795739,73000000,0.0030443241534761876,-0.013061021526079923,0.9128884003288156,-0.407988860573717,0.04007871448993683,0.05347730964422226,0.005970301106572151,-0.06766003370285034,0.004788488149642944,9.482568321228028
1713795739,93000000,0.0006696859886679211,-0.012705344435461091,0.9128554207955664,-0.4080846805108008,0.020922662690281868,0.033789146691560745,0.008098749443888664,-0.20173533260822296,-0.1699882298707962,10.15773349761963
1713795739,116000000,-0.0019031148395583218,-0.011732010733290176,0.9128479633316399,-0.408126615058781,0.027840126305818558,0.02740379609167576,0.0017134007066488266,-0.6925467252731323,0.3854665756225586,9.166534004211426
1713795739,149000000,0.0011143710136590757,-0.01132758549067176,0.9131443752842398,-0.4074773538136213,-0.0035545136779546738,0.017825771123170853,-0.04085560142993927,0.20527896285057068,-0.2849099040031433,10.143368301391602
1713795739,172000000,0.0020031796880264087,-0.01364853853171131,0.9133342345940049,-0.4069770025267632,-0.017389440909028053,0.03857816010713577,-0.04511250555515289,0.030502229928970337,-1.0055646896362305,10.298990783691407
1713795739,195000000,0.0001342417600621841,-0.016046310574724824,0.9133782205320118,-0.40679567863224014,-0.013132540509104729,0.06731224060058594,-0.01691053993999958,-0.45791491866111755,-0.5003880858421326,9.025275764465333
1713795739,208000000,0.0012648286171121745,-0.015907706799013703,0.9133595897109906,-0.4068410069743917,-0.04080238938331604,0.03219280764460564,0.01075931265950203,0.5811686515808105,-0.32321715354919434,9.750718650817872
1713795739,231000000,-7.603075983937909e-06,-0.018018916077945347,0.9133323283313545,-0.40681614598046145,-0.019517889246344566,0.004522956907749176,-0.003075612708926201,-0.43157869577407837,-0.48123443126678467,9.367646751403809
1713795739,255000000,-0.0017883144198323681,-0.01959823228549962,0.9132752032362653,-0.406867440791934,-0.014196766540408134,-0.00558718154206872,0.002777624875307083,-1.1378681659698486,-0.6320691704750061,12.413071212768555
1713795739,287000000,-0.009373688424755194,-0.0226291976657414,0.9126577430320161,-0.40799007029831885,0.028904352337121964,0.30889132618904114,0.08206239342689514,-5.167309761047363,-0.5817909240722656,9.789025840759278
1713795739,308000000,-0.014488480153858582,-0.024726236714625816,0.9121433183165716,-0.4088682721992465,0.0092161875218153,0.32485470175743103,0.09855788946151733,-6.500879764556885,-0.052672356367111206,6.583190021514893
1713795739,328000000,-0.017017911291036285,-0.026014323558153533,0.9116701441444389,-0.4097452793392014,-0.007811414077877998,0.08221139013767242,0.09749366343021393,-5.322932720184326,-0.4453214406967163,6.851340351104737
1713795739,349000000,-0.017536058084587178,-0.025931468751038775,0.9112109930410677,-0.41074879398043196,0.011344637721776962,-0.15936771035194397,0.09908999502658844,-4.099495887756348,-0.0790085718035698,9.551999626159668
1713795739,372000000,-0.018132353848261742,-0.025193756534243515,0.9107697066476683,-0.4117463221797306,0.01985843852162361,-0.17213840782642365,0.08791563659906387,-4.291031837463379,0.6751649975776672,12.535175857543946
1713795739,395000000,-0.020362555226792676,-0.02480093941116177,0.9105135085578708,-0.41223225308386047,0.0022987239062786102,-0.006651406642049551,0.04215395450592041,-2.892817974090576,1.237802267074585,9.283849296569825
1713795739,427000000,-0.014976022009253586,-0.023439708850513028,0.9108363848456511,-0.4118293079117688,-0.014196766540408134,-0.1471291184425354,-0.029681241139769554,0.4087860882282257,-0.5554547309875488,10.921483573913575
1713795739,448000000,-0.01220598745205414,-0.023582708950163855,0.9108708368310469,-0.41183636109454985,-0.021646341308951378,-0.061459001153707504,0.002777624875307083,0.42793968319892883,-0.8954313397407532,11.412294921875
1713795739,471000000,-0.010423426451480434,-0.023439986311181053,0.9108253081044158,-0.4119941472147853,0.002830836921930313,0.04549562186002731,0.01927311345934868,-0.09878465533256531,-0.3974373936653137,9.49214511871338
1713795739,497000000,-0.00827274310071942,-0.02284480882842774,0.9107754717562735,-0.41218650690957787,-0.005150852724909782,0.029000135138630867,0.01927311345934868,0.04965585470199585,-0.34715914726257324,8.9510551071167
1713795739,510000000,-0.007236855632860362,-0.021840284841528054,0.9107901667898127,-0.4122279732836857,0.0017666108906269073,-0.023146895691752434,0.006502412259578705,0.42315128445625305,-0.052672356367111206,10.270260391235352
1713795739,530000000,-0.005639478863075939,-0.02061875806192454,0.910864236744166,-0.41215216281684713,0.0017666108906269073,-0.0007981681264936924,-0.0073325131088495255,0.30344119668006897,-0.21068966388702393,10.433065948486329
1713795739,551000000,-0.003969905588223751,-0.020050174889687872,0.9109684684189912,-0.4119692705565199,0.0033629480749368668,0.03219280764460564,-0.015846313908696175,0.09035727381706238,-0.3375823497772217,9.271878776550293
1713795739,574000000,-0.0017478980250923086,-0.020016118059727014,0.91104160194755,-0.4118245978461644,-0.0024902895092964172,0.0087798573076725,-0.00999307818710804,0.16457751393318176,-0.48123443126678467,9.743536529541016
1713795739,588000000,-0.00041045328770540694,-0.01953739836225646,0.9110522862485115,-0.411827455756283,-0.0019581764936447144,-0.0029266183264553547,0.003309737890958786,0.32259485125541687,-0.3998315930366516,10.356451568603516
1713795739,611000000,0.0002559955602335798,-0.01744230816915904,0.9111200017227694,-0.4117718334377739,0.0022987239062786102,0.015165207907557487,-0.005204064771533012,0.9953655004501343,0.8164228796958923,8.453061637878418
1713795739,631000000,-0.00017744092775165188,-0.015310972100431074,0.9116479463799639,-0.4106866987245283,0.015069425106048584,-0.017825769260525703,-0.12173670530319214,0.363296240568161,3.2154130935668945,10.854445991516114
1713795739,653000000,-0.0010218566761378506,-0.013139085525895901,0.9135435095612721,-0.4065274607931799,0.01613365113735199,0.023679008707404137,-0.41599494218826294,0.20527896285057068,1.9632455110549927,9.358069953918458
1713795739,667000000,-0.0014713115331105439,-0.011867766458644395,0.9155161278197027,-0.4021034830285276,0.0022987239062786102,0.042302947491407394,-0.6921613812446594,0.4351223409175873,1.9536687135696411,9.487356719970704
1713795739,689000000,-0.001619302551072041,-0.009620365688606738,0.9194972053972699,-0.3929754644884038,0.004959287121891975,-0.008247744292020798,-0.9060705900192261,0.30583539605140686,1.3742718696594238,9.973379669189454
1713795739,711000000,0.0009155957509033922,-0.009897366807438827,0.9240214913901497,-0.3822113123179684,0.008151961490511894,-0.030596470460295677,-1.0598511695861816,0.5668034553527832,-0.6488285660743713,10.196040687561036
1713795739,734000000,0.0014174764365254202,-0.007531682747847978,0.9289606768605496,-0.37009907506278283,0.007619849406182766,-0.0013302811421453953,-1.137007474899292,1.07916259765625,1.6112977266311646,10.040417251586915
1713795739,767000000,0.0026649333023913064,-0.004935926103424826,0.9375796863403928,-0.3477252744996339,0.005491400137543678,0.04655984789133072,-1.452018141746521,0.669754147529602,0.3423709273338318,9.721988258361817
1713795739,789000000,0.0021657923817314396,-0.0026149564395404074,0.9434217082956117,-0.33157797222187185,0.020922662690281868,0.03644970804452896,-1.5605690479278564,0.26034560799598694,0.6943185925483704,9.642980155944825
1713795739,809000000,0.003735536836272023,-0.003507189513570278,0.9487456192493339,-0.31599920148864075,0.01187674980610609,0.01888999529182911,-1.6462392807006836,0.5596208572387695,-0.6727705597877502,10.119426307678223
1713795739,832000000,0.005926171878834683,-0.0040772906564547655,0.9545682730268596,-0.2979054687619614,0.0033629480749368668,0.006119294557720423,-1.6526246070861816,0.43991073966026306,-0.361524373292923,9.568759498596192
1713795739,852000000,0.007028499517469976,-0.005538727790390311,0.9593539377994348,-0.28206372456896145,0.014537312090396881,-0.005055068526417017,-1.6558172702789307,0.3106238543987274,-1.0295066833496094,9.793814239501954
1713795739,876000000,0.00946200544263482,-0.006422207647292295,0.9647119150348714,-0.26305920757823614,-0.01685732789337635,-0.0013302811421453953,-1.6451749801635742,0.5596208572387695,-0.48362863063812256,9.724382934570313
1713795739,888000000,0.01064577412492341,-0.006215021756985494,0.9672674661966136,-0.25345944416301414,-0.0035545136779546738,0.013036757707595825,-1.6542209386825562,1.2515450716018677,-0.330399751663208,10.294202384948731
1713795739,931000000,0.014285553064953629,-0.00719813954328889,0.9757107438809949,-0.21847804016866212,-0.0008939523249864578,0.03485337272286415,-1.673909068107605,0.7463685274124146,-0.5075706839561462,9.817756233215333
1713795739,951000000,0.016025794432642165,-0.007841517210611089,0.9792246552009886,-0.2019919779772045,0.020390551537275314,0.0018623941577970982,-1.686679720878601,0.8565018177032471,-0.8188169002532959,9.963802871704102
1713795739,973000000,0.017407255408736663,-0.009566531514951786,0.9826698446130997,-0.18429716607146943,-0.02377478964626789,0.016761545091867447,-1.6403859853744507,0.9019917249679565,-1.455674648284912,9.61424976348877
1713795739,986000000,0.017648436162691555,-0.010751899785259606,0.9845176228305674,-0.17406314856415664,-0.01153620146214962,0.03325703367590904,-1.602605938911438,0.34893104434013367,-0.6679821610450745,10.322932777404786
1713795740,8000000,0.01846568052810642,-0.012332864459466157,0.9873605824275918,-0.15692673247444175,0.008684074506163597,0.04123872146010399,-1.5813214778900146,0.4614585340023041,-0.7182604074478149,9.556788024902344
1713795740,72000000,0.015546666787168782,-0.01641540261489706,0.993626172992061,-0.11043488603675163,0.026775900274515152,0.016229433938860893,-1.4722384214401245,0.23640355467796326,-0.4237736463546753,9.970984992980958
1713795740,95000000,0.014957179681934218,-0.01832460188002592,0.9952810332607149,-0.09410715474066918,0.006023511290550232,0.019422108307480812,-1.4312657117843628,0.04247322678565979,-0.900219738483429,9.777055320739747
1713795740,128000000,0.011578412111586578,-0.018526866483968386,0.9972102222874237,-0.07137554312736477,0.01932632550597191,0.03432125970721245,-1.3871004581451416,-0.31665700674057007,-0.4764460325241089,9.870428619384766
1713795740,148000000,0.010768279319811,-0.020116897270936757,0.9980772600203679,-0.057629312289111057,0.015601538121700287,0.03751393407583237,-1.380715012550354,0.07359784841537476,-0.6631937623023987,9.815362510681153
1713795740,170000000,0.009342247594653632,-0.0212663476928443,0.9988220344560743,-0.042602914814787306,0.037418149411678314,0.029000135138630867,-1.3722012042999268,-0.2184947431087494,-0.8283936977386475,9.456231651306153
1713795740,191000000,0.008449627597778507,-0.022687820829046693,0.9992989021727889,-0.028558198398126886,0.028904352337121964,0.017825771123170853,-1.3424029350280762,-0.046112239360809326,-0.7852980494499207,9.877611694335938
1713795740,212000000,0.010417052867266519,-0.021734222229193037,0.9996028351650091,-0.01460412694165377,0.01081252470612526,0.030064359307289124,-1.3243111371994019,0.485400527715683,-0.36631277203559875,10.401941833496094
1713795740,237000000,0.007919235398433519,-0.022208248865472072,0.99972028708119,0.0018512134767445342,0.030500689521431923,0.04549562186002731,-1.3211184740066528,-0.27595558762550354,-0.6272807717323303,9.717199859619141
1713795740,273000000,0.006792964709079101,-0.01862723120842006,0.9995029134449179,0.02451138313294921,0.0044271741062402725,0.013036757707595825,-1.2593934535980225,-0.024564415216445923,-0.007182523608207703,9.79860263824463
1713795740,288000000,0.006571609753210689,-0.020009823563019318,0.9992024857956201,0.033923639045389566,-0.0008939523249864578,-0.0029266183264553547,-1.258329153060913,0.0831746757030487,-0.5793967247009277,9.767478523254395
1713795740,308000000,0.006314249545869032,-0.02171779917997648,0.9986652179679992,0.04643543767834077,0.014005200006067753,0.00026605650782585144,-1.255136489868164,0.09993407130241394,-0.5817909240722656,9.915918884277344
1713795740,330000000,0.007887538023605953,-0.023171301011168006,0.9978904004596493,0.060130077530772215,0.014537312090396881,0.010908307507634163,-1.245558500289917,0.5189193487167358,-0.837970495223999,9.750718650817872
1713795740,353000000,0.009380698181970062,-0.024826185789387972,0.9968893227905504,0.0742114620996463,0.007619849406182766,0.01569732092320919,-1.2264024019241333,0.3656904399394989,-0.677558958530426,10.152945098876954
1713795740,390000000,0.011336190507798116,-0.021243942230437712,0.9950012798359819,0.09691562736751429,0.006023511290550232,0.023679008707404137,-1.2274667024612427,0.5356787443161011,0.2705448865890503,9.080341873168946
1713795740,413000000,0.013580540743782551,-0.019622004820419366,0.9935220271122379,0.11110592910697123,0.015601538121700287,-0.0013302811421453953,-1.236512541770935,0.5739860534667969,-0.1699882298707962,10.37321144104004
1713795740,425000000,0.012705580080927741,-0.020023790977755286,0.9926668876531991,0.11853297510227821,0.012940974906086922,-0.0034587313421070576,-1.2514116764068604,-0.07484263181686401,-0.6296749711036682,9.949437675476075
1713795740,445000000,0.012428903748268768,-0.021761567699863146,0.9910930743627996,0.13079172172945275,0.0044271741062402725,0.008247744292020798,-1.239705204963684,0.21724995970726013,-0.9792283773422241,9.508904037475586
1713795740,467000000,0.01124351411360599,-0.02293346967275593,0.9892659181743613,0.1438769700048759,0.025711676105856895,0.0023945067077875137,-1.2067142724990845,-0.05568903684616089,-0.9457095861434937,10.411518630981446
1713795740,491000000,0.011951581451968814,-0.02013609860066387,0.9871677777327533,0.15796036161049598,0.022518999874591827,0.013568870723247528,-1.183833360671997,0.3130180537700653,0.05027832090854645,9.791420516967774
1713795740,512000000,0.011855959584524569,-0.021844487232133825,0.9850468814647984,0.17048429815197286,0.01932632550597191,0.013568870723247528,-1.2130995988845825,0.3369600474834442,-1.5059528350830078,9.585519371032715
1713795740,532000000,0.010068262214133521,-0.021108652418219048,0.9829564546158477,0.18234490181553525,0.009748299606144428,0.012504644691944122,-1.208310604095459,0.21485576033592224,-0.3758895993232727,9.812967834472657
1713795740,564000000,0.010270033950546651,-0.017520847158520796,0.9794432939170548,0.20069474412254176,0.01187674980610609,0.005587182007730007,-1.1662737131118774,0.04486742615699768,0.6392519474029541,10.272655067443848
1713795740,585000000,0.012181664734042726,-0.016257083990483732,0.9768720217513973,0.21285762232950772,0.0092161875218153,0.016229433938860893,-1.180108666419983,0.39920929074287415,-0.16041143238544464,9.391588745117188
1713795740,605000000,0.011521549323227078,-0.01767514092905889,0.9742529222091536,0.2244684540447843,0.024115338921546936,0.006119294557720423,-1.1944756507873535,0.0640210509300232,-1.2713210582733154,9.55918270111084
1713795740,625000000,0.00992068944092825,-0.018401052609860205,0.9716067577951385,0.23567623849400854,0.013473087921738625,0.011440420523285866,-1.1561635732650757,-0.13709187507629395,-0.7350198030471802,10.430672225952149
1713795740,648000000,0.011110813142098783,-0.016116306324423863,0.9684492171011324,0.2484409958078224,0.014537312090396881,0.03485337272286415,-1.1396681070327759,0.3656904399394989,-0.0790085718035698,9.980561790466309
1713795740,671000000,0.009598535787818234,-0.017514620613276324,0.9650358732423541,0.26135582934166607,0.02305111289024353,0.051348861306905746,-1.1652095317840576,-0.12033247947692871,-1.443703532218933,9.001333770751954
1713795740,694000000,0.008887458125578186,-0.019227595095238366,0.9614690819108574,0.27409581756096235,0.024115338921546936,0.03219280764460564,-1.1535030603408813,0.2507688105106354,-0.9337385892868042,9.674104270935059
1713795740,726000000,0.007072351912023352,-0.02147630127034452,0.9564964236228263,0.2908665362652098,0.007619849406182766,0.023146895691752434,-1.0970990657806396,0.03289642930030823,-0.9935936331748962,9.688469467163086
1713795740,750000000,0.0047498989216723415,-0.021135148477652414,0.9527780134408677,0.30289404263328695,0.012408861890435219,0.020486334338784218,-1.0534658432006836,-0.024564415216445923,-0.43095624446868896,9.55918270111084
1713795740,774000000,0.003964430620034741,-0.02297026309387967,0.9489402886864791,0.314593354683278,0.01932632550597191,-0.0023945062421262264,-1.0295207500457764,0.06641525030136108,-1.1324573755264282,9.779449043273926
1713795740,788000000,0.004281880524835959,-0.024353786424209746,0.9467426000022019,0.32104050823384567,0.0017666108906269073,-0.01197253167629242,-0.9741809964179993,0.4542759358882904,-1.0055646896362305,10.023657379150391
1713795740,810000000,0.003979232534871316,-0.026378834346856474,0.9433578179658209,0.33070281234017307,0.005491400137543678,-0.010908307507634163,-0.9337404370307922,0.2459804117679596,-0.5865793228149414,10.320539054870606
1713795740,833000000,0.003670837705519399,-0.028537884047203838,0.9397231479239518,0.34072352337422585,-0.0014260634779930115,0.021550558507442474,-0.9284193515777588,0.37766149640083313,-1.1899181604385376,9.657345352172852
1713795740,870000000,0.001970939302860416,-0.03140301247873952,0.9342788366856731,0.3551521104073435,0.007619849406182766,0.015165207907557487,-0.837428092956543,0.1119050681591034,-1.278503656387329,10.117031631469727
1713795740,890000000,0.002393325059030824,-0.029197796729994178,0.9314078753221928,0.36279626575955043,0.015069425106048584,0.021550558507442474,-0.815079391002655,0.04726165533065796,0.44053322076797485,9.915918884277344
1713795740,912000000,0.0012376470611939205,-0.03083216228393463,0.928083130255423,0.3710923730473921,0.007619849406182766,0.02101844549179077,-0.8161435723304749,-0.08202525973320007,-1.908178687095642,9.360463676452637
1713795740,924000000,0.0005035340964421643,-0.03178968870596635,0.9264428864616303,0.3750903094856413,-0.012068314477801323,0.015165207907557487,-0.7240881323814392,-0.2615903615951538,-2.1954827308654785,9.894370613098145
1713795740,946000000,-0.0011727638206761612,-0.030373148138009294,0.9241117057663606,0.38091160623272535,0.006023511290550232,0.012504644691944122,-0.575096607208252,-0.01977601647377014,-0.5195416808128357,10.054782447814942
1713795740,970000000,-0.0026227574848167595,-0.0321470018071453,0.9216596129309624,0.3866565004108114,0.006555624306201935,0.025275347754359245,-0.5234816670417786,0.05444425344467163,-1.1420341730117798,9.322156486511231
1713795740,991000000,-0.003748847197458724,-0.03394556188132068,0.91968425217242,0.39117070605978177,-0.006747189909219742,0.016761545091867447,-0.47186675667762756,-0.20652374625205994,-3.2082300186157227,9.662133750915528
1713795741,11000000,-0.005316815170997776,-0.03524661677903201,0.9187404649982266,0.3932497494683398,-0.0072793010622262955,0.006651407107710838,-0.23294824361801147,-1.5664303302764893,-3.9600093364715576,10.064359245300293
1713795741,85000000,0.0005419353117405397,-0.029694594497351023,0.9198018934119264,0.39125747818999057,0.007619849406182766,-0.03804604709148407,0.06290633976459503,0.4351223409175873,0.2250550538301468,10.47616153717041
1713795741,105000000,0.0011605708821073157,-0.02779646815249018,0.9198382210049553,0.3913101795403667,0.0007023867219686508,-0.009311968460679054,-0.0020113885402679443,0.22922095656394958,-0.39025479555130005,10.457007942199708
1713795741,126000000,-0.0010389427681906608,-0.02655487616186893,0.9198517805562514,0.3913648693450225,-0.0019581764936447144,0.04123872146010399,-0.007864626124501228,-0.2831381857395172,-0.38546639680862427,9.142592010498047
1713795741,146000000,-0.0030972090901005213,-0.02577404935228893,0.9199014290158684,0.39128949202655716,-0.0024902895092964172,0.019954221323132515,0.0043739620596170425,-0.18258172273635864,-0.4884170889854431,9.628614959716797
1713795741,166000000,-0.004170947107472875,-0.02408528163847085,0.9199911702962585,0.3911761099371263,-0.0019581764936447144,0.0013302816078066826,0.01075931265950203,-0.00541079044342041,-0.4046199917793274,10.334904251098633
1713795741,187000000,-0.006323732257873717,-0.023132617934709047,0.920027692742589,0.3911188271926649,-0.0024902895092964172,0.02421112172305584,0.0022455118596553802,-0.1466687023639679,-0.4453214406967163,9.535240707397461
1713795741,207000000,-0.008468002411603557,-0.022860196864507132,0.9200008463336092,0.3911574453847401,0.0007023867219686508,0.01729365810751915,-0.008928852155804634,-0.12990927696228027,-0.5219358801841736,9.74114185333252
1713795741,229000000,-0.006819162666821055,-0.021430258849738173,0.920019267322569,0.39122728787930977,0.0017666108906269073,0.006651407107710838,-0.002543499693274498,0.20767316222190857,-0.11970999836921692,9.666922149658204
1713795741,251000000,-0.004627600180303983,-0.02068248566427294,0.9199808456330852,0.3913899127105241,0.005491400137543678,-0.008779855445027351,-0.01158941350877285,1.7758753299713135,1.194706678390503,8.864863929748536
1713795741,274000000,-0.0016927681399710015,-0.021483952327282525,0.9195727011579168,0.3923284613860637,-0.0019581764936447144,-0.06358744949102402,-0.08608517050743103,2.072756290435791,0.01675949990749359,8.76670223236084
1713795741,286000000,-0.00021662371661765233,-0.022788728769754744,0.9191981025489827,0.39313544127383593,-0.013664653524756432,-0.1306336224079132,-0.1478102207183838,3.94981050491333,-2.3487117290496826,9.810574111938477
1713795741,309000000,0.003799089718245666,-0.02451955858789764,0.9188550098859557,0.3938144600842478,-0.017389440909028053,-0.17958799004554749,-0.06533277779817581,4.4932942390441895,-0.21308386325836182,13.066688117980958
1713795741,330000000,0.0061252136821066255,-0.025123771288273433,0.9188011365673572,0.3938727577735422,-0.003022400662302971,-0.02953224442899227,-0.003075612708926201,3.3392889499664307,0.11013336479663849,11.132173118591309
1713795741,371000000,0.008033802816116679,-0.025165766085534058,0.9189009834103455,0.3936027501391981,0.0022987239062786102,0.11041335761547089,0.020869452506303787,1.9985361099243164,-0.16280563175678253,10.65572696685791
1713795741,391000000,0.00887426362634802,-0.024001135025758534,0.9189924175745233,0.3934439342563289,-0.004086626693606377,0.10615645349025726,0.025658464059233665,0.6721483469009399,-0.11013319343328476,10.717976150512696
1713795741,414000000,0.005613139374702877,-0.0217054727260186,0.9191130877402471,0.39335543350091035,-0.029628029093146324,0.1668172925710678,0.013419875875115395,-0.12033247947692871,-0.05746075510978699,7.897606430053711
1713795741,426000000,0.006525223072074174,-0.021885369884658414,0.9190699690974793,0.3934321338579629,0.007619849406182766,0.04709196090698242,-0.00999307818710804,2.1685242652893066,0.045489922165870667,5.706912097930909
1713795741,446000000,0.010037571154495165,-0.024072945308200932,0.918859783291736,0.3937212708485161,-0.0344170406460762,-0.21045051515102386,-0.035002365708351135,3.6074395179748535,-0.8738835453987122,11.182451782226563
1713795741,487000000,0.01357779168268089,-0.025097296377395783,0.9188738092525446,0.39351835021671494,0.010280411690473557,0.02101844549179077,0.013419875875115395,3.1190223693847656,-0.20111286640167236,10.064359245300293
1713795741,509000000,0.012359844287063082,-0.026312990251980667,0.9188485525238601,0.3935380519314567,0.006023511290550232,0.18863390386104584,-0.0004150513559579849,0.7056671380996704,-0.6823473572731018,8.31419807434082
1713795741,531000000,0.00834250431429035,-0.024906388331024973,0.9189705902018291,0.39345028756651307,0.0044271741062402725,0.18810178339481354,0.01075931265950203,-0.620720624923706,-0.4932054877281189,8.809797821044922
1713795741,544000000,0.00663668005480031,-0.02381037403988466,0.9190506402498753,0.3933636246810642,0.02145477570593357,0.10988124459981918,0.015548326075077057,-1.27194344997406,-0.13886362314224243,9.97816806793213
1713795741,565000000,0.0048112504468862515,-0.022403331497061786,0.9191138624153244,0.3933251206355299,-0.0008939523249864578,0.020486334338784218,0.003309737890958786,-0.5800192356109619,-0.12210419774055481,9.86324649810791
1713795741,588000000,0.0028070463660681702,-0.02172834306019514,0.9191351273788498,0.39333270550110955,-0.03760971873998642,-0.015165207907557487,-0.003075612708926201,-0.7308539152145386,-0.25139111280441284,9.820150909423829
1713795741,611000000,0.00030304743974809647,-0.02134746427717336,0.9191097095919983,0.39342284588581833,-0.024306902661919594,0.01569732092320919,-0.01158941350877285,-0.6398742198944092,-0.4884170889854431,9.439472732543946
1713795741,646000000,-0.0034581266627706385,-0.02104850943474633,0.9190757792442592,0.39350313037778617,0.0007023867219686508,0.016761545091867447,-0.008928852155804634,-0.41481930017471313,-0.5793967247009277,9.386800346374512
1713795741,669000000,-0.000925505271044652,-0.021235309910035426,0.9190200435669352,0.39363735160074237,-0.011004088446497917,-0.026339570060372353,-0.008928852155804634,0.16457751393318176,-0.3830721974372864,9.966196594238282
1713795741,689000000,0.001118904953440282,-0.02215174440376652,0.9189105911058629,0.3938418132004892,-0.004086626693606377,-0.023679008707404137,-0.019571101292967796,0.3369600474834442,-0.38546639680862427,9.721988258361817
1713795741,709000000,0.0033441069933459766,-0.022025845077595304,0.9187949836452329,0.3941058958267319,0.020922662690281868,-0.014633094891905785,-0.024892227724194527,0.34893104434013367,-0.330399751663208,9.966196594238282
1713795741,732000000,0.005316725994204304,-0.023609079116019668,0.9186872644383066,0.394243647972744,0.012940974906086922,-0.025275344029068947,-0.012653639540076256,1.0911335945129395,-0.6799531579017639,8.994150695800782
1713795741,746000000,0.007081364134716617,-0.023908703541231934,0.918680935545891,0.39421259092207545,-0.030160142108798027,-0.06997279822826385,0.007566638290882111,1.3473131656646729,0.13646958768367767,10.188857612609864
1713795741,787000000,0.00904645455123576,-0.026589603753975063,0.9183348987441717,0.39480649485639313,-0.013132540509104729,0.04815618321299553,-0.029681241139769554,0.5308903455734253,-0.4453214406967163,9.365252075195313
1713795741,808000000,0.0075845670464785644,-0.02831660894886522,0.9181139221317601,0.39523090717729925,-0.0072793010622262955,0.06358744949102402,-0.04777306318283081,0.35850784182548523,-1.3623007535934448,9.578336296081543
1713795741,829000000,0.006201161939012476,-0.02945956432343632,0.9179764576694395,0.39549071142714254,0.0262437891215086,-0.01037619449198246,-0.03393813967704773,-0.07005423307418823,-1.3623007535934448,10.279837188720704
1713795741,849000000,0.00433818470524574,-0.029273145748752744,0.9180632848546192,0.39532779828059367,0.03688604012131691,0.0013302816078066826,0.011823538690805435,-0.37172365188598633,-0.8643066883087158,9.9231010055542
1713795741,871000000,0.0021413552038285996,-0.027554295299416165,0.9183017030532217,0.3949153802753145,0.0262437891215086,0.04815618321299553,0.039493389427661896,-0.4962221384048462,-0.31603455543518066,9.420319137573243
1713795741,906000000,0.0004254322484116466,-0.024094997419841994,0.918569555852978,0.3945240438386519,0.0007023867219686508,0.02740379609167576,0.025658464059233665,-0.38848307728767395,0.16998840868473053,9.913524208068848
1713795741,927000000,0.0003689991436615484,-0.022020325518239098,0.9186211441852287,0.3945252369108017,-0.0014260634779930115,-0.0023945062421262264,0.0017134007066488266,-0.18976432085037231,0.3830723762512207,10.04520565032959
1713795741,947000000,0.0002455544702204685,-0.02000084932248568,0.9185636402658087,0.3947666963042947,-0.005682963877916336,0.018357884138822556,-0.02382800169289112,0.04965585470199585,-0.06703756749629974,10.310962257385254
1713795741,969000000,0.0009876265079593071,-0.021564870640300233,0.9183987204047318,0.3950667934756086,-0.005150852724909782,0.056137870997190475,-0.027552789077162743,0.5141309499740601,-0.5410894751548767,9.101890144348145
1713795741,989000000,-0.0015724079736513027,-0.021784556532143076,0.9183621685387087,0.3951378089056302,-0.025903241708874702,0.050816748291254044,-0.011057300493121147,-0.07723686099052429,-0.5578489303588867,10.538410720825196
1713795742,12000000,-0.004596985953096801,-0.021517508282696763,0.9183100153436596,0.39525002248827096,-0.005682963877916336,0.06624801456928253,-0.013717865571379662,-0.17779332399368286,-0.5291184782981873,9.657345352172852
1713795742,70000000,-0.004398557158551229,-0.02700313464420577,0.9182277527376067,0.3951066659988847,0.006023511290550232,0.011972532607614994,0.004906075075268745,0.2459804117679596,-0.7374140024185181,10.059570846557618
1713795742,111000000,-0.005915357157654615,-0.022305979764806905,0.9182267873906781,0.39538211736827955,0.016665762290358543,0.04549562186002731,-0.013185752555727959,-0.15863969922065735,-0.09097958356142044,9.520875511169434
1713795742,135000000,-0.007464375850622382,-0.02001403081925773,0.9181257916793717,0.3957129670817639,-0.0046187397092580795,0.04177083447575569,-0.03074546717107296,-0.20412953197956085,-0.2178722620010376,9.789025840759278
1713795742,148000000,-0.008271528519009218,-0.019130795834979678,0.9180296309666107,0.3959636234984067,-0.017921553924679756,-0.008247744292020798,-0.04511250555515289,-0.23285995423793793,-0.30166932940483093,10.253501472473145
1713795742,171000000,-0.010352325156002755,-0.020178302380067344,0.917839689166044,0.3963028771892812,-0.02217845432460308,-0.018357882276177406,-0.03713081777095795,-0.41481930017471313,-0.8020574450492859,10.389970359802247
1713795742,191000000,-0.011640151281562356,-0.022012957417672088,0.9177536131976498,0.39636882072954344,-0.02377478964626789,0.005587182007730007,-0.00999307818710804,-0.1011788547039032,-0.7805096507072449,9.410742340087891
1713795742,213000000,-0.013749898221986783,-0.02288324301965979,0.917779722489726,0.3961914669379814,0.007087737321853638,0.01888999529182911,0.013419875875115395,-0.20891794562339783,-0.6919242143630981,9.676498947143555
1713795742,250000000,-0.015130904616932853,-0.018738242306692444,0.9179131778228615,0.3960496584771469,0.018794212490320206,0.033789146691560745,0.007034525275230408,-1.3198275566101074,1.0342952013015747,10.524045524597168
1713795742,273000000,-0.01798287717627326,-0.01788601923229568,0.917602656214621,0.3966888853400825,-0.003022400662302971,0.0603947751224041,-0.06480066478252411,-2.3613052368164062,-0.7757212519645691,10.234347877502442
1713795742,285000000,-0.019632203341395673,-0.01742951950578794,0.9174709374673603,0.39693559596554506,-0.028031690046191216,0.08380772918462753,-0.04936940222978592,-2.4187660217285156,-0.5099648833274841,8.235189018249512
1713795742,305000000,-0.021451441507876753,-0.015875942141570825,0.9174355583381864,0.3969883958191371,-0.01153620146214962,0.04655984789133072,-0.010525187477469444,-3.275890350341797,0.9074025750160217,9.846486625671387
1713795742,326000000,-0.02405786565110331,-0.01530451780353285,0.9169599809633313,0.39795902320068305,-0.025903241708874702,0.05294519662857056,-0.10630545020103455,-4.899158954620361,-0.9241617321968079,9.16413932800293
1713795742,349000000,-0.02783842095682023,-0.014940556364430412,0.9165532345248397,0.39866272759841287,-0.045591406524181366,0.12371616810560226,-0.07171812653541565,-4.748324394226074,-1.7118542194366455,9.104284820556641
1713795742,369000000,-0.030320694958718836,-0.014007098281487013,0.9164835276213199,0.3986758084631349,-0.006747189909219742,0.06518378853797913,-0.0073325131088495255,-5.6700921058654785,-0.596156120300293,8.414754447937012
1713795742,391000000,-0.03135832784115715,-0.013159698315968863,0.9166165968592964,0.398318329953972,-0.0072793010622262955,-0.07955082505941391,0.02672269009053707,-1.9279546737670898,-0.028730332851409912,7.1027317619323735
1713795742,415000000,-0.03162769706835292,-0.013904700651909784,0.9165108305648226,0.3985150505756495,-0.0014260634779930115,-0.19289079308509827,-0.026488566771149635,-1.5879781246185303,-0.9409211874008179,12.16886287689209
1713795742,448000000,-0.029076991440464994,-0.011481658305983,0.9165123635476236,0.3987828827265087,0.0007023867219686508,-0.0438992865383625,-0.019571101292967796,-0.43876129388809204,-0.19871865212917328,10.85923439025879
1713795742,468000000,-0.031054540134178424,-0.01120345206459934,0.9164271886024478,0.3988374433138199,0.007619849406182766,0.0023945067077875137,-0.011057300493121147,-1.1689928770065308,-0.6512227654457092,9.212023315429688
1713795742,490000000,-0.03335600171998233,-0.010153762103435883,0.916444567282427,0.39863972878142595,-0.006215076893568039,0.030064359307289124,0.012887762859463692,-1.2575782537460327,-0.36391857266426086,8.931901512145997
1713795742,513000000,-0.03569984139004926,-0.00963478713938656,0.9165023407153172,0.39831664748645446,-0.009407753124833107,0.007183519657701254,0.024062126874923706,-1.834580898284912,-0.7110778093338013,11.412294921875
1713795742,527000000,-0.03723406041025753,-0.008789974429141367,0.9165518597264817,0.3980817121230621,-0.003022400662302971,0.05028463527560234,0.029383253306150436,-1.7459954023361206,-0.2370258867740631,8.596713600158692
1713795742,548000000,-0.039162122604593626,-0.007627642248684747,0.9165948525604248,0.3978215975617232,-0.0008939523249864578,0.014633094891905785,0.01927311345934868,-1.1211087703704834,-0.3375823497772217,9.144985733032227
1713795742,568000000,-0.03678341197408983,-0.007220208528112963,0.9166873680416238,0.397843082716384,0.005491400137543678,-0.04815618693828583,0.00011706165969371796,-0.2855323851108551,-0.14125782251358032,10.509680328369141
1713795742,590000000,-0.03455328842557094,-0.006818986956043972,0.9167168000251544,0.397982261197046,0.002830836921930313,-0.006119294557720423,-0.010525187477469444,-0.11554408073425293,-0.08619117736816406,10.31814437866211
1713795742,612000000,-0.03305405924742582,-0.008016221688854418,0.9166174139897167,0.398316062603439,0.006023511290550232,0.025275347754359245,-0.02542434073984623,-0.07484263181686401,-0.5027822852134705,9.475385246276856
1713795742,646000000,-0.03064698620575115,-0.010397771635069837,0.916673332461362,0.3983248048210286,-0.0035545136779546738,0.0018623941577970982,0.006502412259578705,0.17654851078987122,-0.677558958530426,10.095484313964844
1713795742,669000000,-0.029467169406271573,-0.012179581613241687,0.9167726710726568,0.3981346672838408,-0.0008939523249864578,0.016229433938860893,0.025126352906227112,0.23879775404930115,-0.8307878971099854,9.688469467163086
1713795742,689000000,-0.02764398199153769,-0.011511570301521503,0.9169987342256293,0.3977645225977783,0.0017666108906269073,0.0087798573076725,0.04375029355287552,0.14302971959114075,0.05506671965122223,9.800997314453125
1713795742,710000000,-0.025653361928752588,-0.011233402920179604,0.9171439492854517,0.39757098984919653,0.0044271741062402725,0.011972532607614994,0.02459423989057541,0.3345658481121063,-0.01915353536605835,9.67171054840088
1713795742,733000000,-0.023532086892205734,-0.011396343005546058,0.9171303509659188,0.39772890715879383,0.00017027370631694794,0.01569732092320919,-0.00999307818710804,-0.08202525973320007,-0.308851957321167,9.808179435729981
1713795742,746000000,-0.0226456550755911,-0.01228525071823761,0.9170634102940987,0.3979082160759501,-0.0008939523249864578,0.008247744292020798,-0.024360114708542824,0.23640355467796326,-0.6057329177856445,9.911130485534668
1713795742,768000000,-0.021493371398491033,-0.013991726113149187,0.9169824729687706,0.39810226180515357,-0.003022400662302971,0.01729365810751915,-0.013717865571379662,0.16218331456184387,-0.6631937623023987,9.858458099365235
1713795742,788000000,-0.01986960868561091,-0.014694143023580707,0.916992010647232,0.39813933895136494,-0.0014260634779930115,0.023146895691752434,0.0017134007066488266,-0.00541079044342041,-0.41659098863601685,9.815362510681153
1713795742,809000000,-0.018001976956697408,-0.014446221911387029,0.9170020518406728,0.398214103740856,-0.0014260634779930115,0.02261478453874588,-0.003075612708926201,-0.13230347633361816,-0.3567359745502472,9.698046264648438
1713795742,832000000,-0.01584187352479009,-0.014202787511116867,0.916965015368628,0.3983998951557975,0.0017666108906269073,0.013568870723247528,-0.013185752555727959,-0.029352813959121704,-0.308851957321167,9.947042999267579
1713795742,845000000,-0.014656182020390991,-0.013848958115244147,0.9169446684076147,0.39850455175136595,0.0017666108906269073,0.014100982807576656,-0.013717865571379662,-0.10596725344657898,-0.3280055522918701,9.846486625671387
1713795742,865000000,-0.014592813101650717,-0.011789204635322199,0.9169686459361649,0.3985179629951991,0.00017027370631694794,0.017825771123170853,-0.002543499693274498,-0.1730049103498459,-0.29688093066215515,9.731565055847168
1713795742,886000000,-0.014262409059476648,-0.013814365178198095,0.9169726719901824,0.3984556008211316,-0.0035545136779546738,0.013036757707595825,0.00916297547519207,-0.012593388557434082,-0.5243300795555115,9.563971099853516
1713795742,909000000,-0.013597844710874366,-0.016099646939697093,0.917076653428943,0.39815362829340956,-0.0024902895092964172,-0.008779855445027351,0.030979590490460396,0.5668034553527832,-1.2449848651885986,9.451443252563477
1713795742,932000000,-0.011277012727063777,-0.01726858516205479,0.9175197467328925,0.397155057006282,-0.00036183930933475494,-0.02793590910732746,0.09855788946151733,0.8780496120452881,-0.5003880858421326,10.789802131652833
1713795742,945000000,-0.012642435266898644,-0.017298373792825988,0.9178790749594242,0.3962813884681912,0.0007023867219686508,0.0087798573076725,0.1421911120414734,-1.7316302061080933,-1.2282254695892334,9.95422607421875
1713795742,965000000,-0.01479478185950187,-0.018335395011281428,0.9188434502891086,0.3939183184117186,-0.015793101862072945,0.03964238241314888,0.25446686148643494,-2.1506154537200928,-3.4739866256713867,9.88958221435547
1713795742,985000000,-0.01767682237926536,-0.0189953399604049,0.9207651424815562,0.389253464212305,-0.03707760572433472,0.08540406823158264,0.5040276050567627,-1.437143325805664,-1.7094600200653076,8.816979942321778
1713795743,8000000,-0.019798762377253407,-0.020496374076865834,0.9235439952086629,0.3824322117343821,-0.01153620146214962,0.031660694628953934,0.6413126587867737,-0.34538742899894714,-0.92176753282547,9.841698226928711
1713795743,70000000,-0.015735989781933992,-0.01516390389445271,0.9318793843659637,0.36210944152006747,0.018794212490320206,0.007183519657701254,0.7094230651855469,0.2699224054813385,0.5482723116874695,9.896765289306641
1713795743,90000000,-0.01429297584008181,-0.014643467766877824,0.9344480486367253,0.35551107450037595,-0.02909591607749462,0.02793590910732746,0.7104873061180115,0.08078047633171082,-0.18914185464382172,9.999715385437012
1713795743,113000000,-0.013119023994305522,-0.016072440874470822,0.9372932779739178,0.347923668235838,-0.008343527093529701,0.031660694628953934,0.7094230651855469,0.4063918888568878,-0.5913677215576172,9.516087112426758
1713795743,147000000,-0.014577637064426106,-0.019230498512391263,0.9422465684395362,0.334049524305156,-0.00993986614048481,-0.00558718154206872,0.867992639541626,-0.16582231223583221,-1.7717092037200928,10.119426307678223
1713795743,169000000,-0.014806352800784506,-0.020934425175561926,0.9456958312852872,0.32403999205180994,0.026775900274515152,0.016761545091867447,0.9664334654808044,0.2651340067386627,-1.4891934394836426,9.384405670166016
1713795743,191000000,-0.01511656850401224,-0.02301316616113532,0.9493551532788631,0.3129962882891265,-0.006747189909219742,0.004522956907749176,1.0611494779586792,0.13824132084846497,-1.3120224475860596,10.006898460388184
1713795743,203000000,-0.014696863584635454,-0.024007663832246468,0.9514402381534582,0.30654381008362097,-0.014728879556059837,0.004522956907749176,1.1356451511383057,0.10232827067375183,-0.6967126131057739,9.374828872680665
1713795743,226000000,-0.01483222162973252,-0.026040260731322172,0.9555015078336587,0.2934600118417767,0.00017027370631694794,0.010908307507634163,1.195773959159851,0.05444425344467163,-0.9313443899154663,9.951831398010254
1713795743,249000000,-0.013323358904531261,-0.024731174568246646,0.9597022093063853,0.27961138489771686,-0.005682963877916336,0.009311970323324203,1.262287974357605,0.28668180108070374,-0.16280563175678253,10.356451568603516
1713795743,272000000,-0.011904566199016847,-0.023367700364868346,0.963814724150287,0.26527986993810365,-0.008875640109181404,0.011972532607614994,1.3000680208206177,0.43751654028892517,0.09576813876628876,9.520875511169434
1713795743,305000000,-0.00971631577880522,-0.02361817342074843,0.9692051968513309,0.24492664511711862,-0.0072793010622262955,0.03432125970721245,1.2825082540512085,0.5332845449447632,-0.43335044384002686,9.750718650817872
1713795743,325000000,-0.010679141989210935,-0.02171114385922305,0.9723038578656817,0.2324645997527593,-0.026967467740178108,0.028468022122979164,1.2825082540512085,-0.22088894248008728,-0.13646940886974335,9.645373878479004
1713795743,348000000,-0.00892852240903466,-0.021878836470522738,0.9756115256710881,0.21822866214138556,-0.015793101862072945,0.016229433938860893,1.2761229276657104,0.19570216536521912,-0.3998315930366516,9.449049530029297
1713795743,373000000,-0.006800827350723311,-0.0219359532834208,0.9789393268838644,0.20285550764290253,0.0022987239062786102,0.0018623941577970982,1.2633521556854248,0.4087860882282257,-0.41419678926467896,10.251106796264649
1713795743,387000000,-0.005574358202990479,-0.022241468492283527,0.9806732068944934,0.19430467027120435,-0.012068314477801323,-0.008779855445027351,1.2511136531829834,0.3010469973087311,-0.4429272413253784,9.789025840759278
1713795743,427000000,-0.0025134732971083267,-0.020881348874175427,0.9852921259680629,0.16957912084485613,-0.003022400662302971,0.0087798573076725,1.262287974357605,0.35850784182548523,-0.22026647627353668,9.482568321228028
1713795743,449000000,-0.0007058903446107546,-0.02139124047823953,0.9875774692166371,0.15566842597420236,-0.024839015677571297,0.0029266192577779293,1.2862330675125122,0.5069483518600464,-0.38786059617996216,9.733959732055665
1713795743,470000000,-9.374317310616683e-06,-0.019899448584014833,0.9896232811964488,0.14230169771351592,-0.03548126667737961,-0.006651406642049551,1.289957880973816,0.4159686863422394,0.6248867511749268,10.433065948486329
1713795743,490000000,0.0015332289237265134,-0.01944462818194554,0.9913339677817626,0.1299096607877965,-0.009407753124833107,0.012504644691944122,1.2553704977035522,0.42315128445625305,-0.21308386325836182,9.516087112426758
1713795743,511000000,0.003356407876642689,-0.020270630549155014,0.9929341555725109,0.11687428614032239,-0.031756483018398285,-0.007183518726378679,1.2548383474349976,0.6218700408935547,-0.43335044384002686,10.04520565032959
1713795743,546000000,0.004759626013019579,-0.017334998923208726,0.9953363559923772,0.09477543042563379,-0.008343527093529701,-0.026339570060372353,1.2723981142044067,0.30583539605140686,0.25617969036102295,9.67171054840088
1713795743,569000000,0.006751693618755015,-0.01819576316136399,0.9965834604636766,0.08027910790795659,-0.015793101862072945,-0.0039908443577587605,1.268673300743103,0.6266584396362305,-0.41898518800735474,9.88958221435547
1713795743,591000000,0.004263450059776445,-0.019158473844370333,0.9976100015887459,0.0662499856878824,-0.025371128693223,0.008247744292020798,1.2755907773971558,-0.2376483678817749,-0.4764460325241089,9.429895935058594
1713795743,605000000,0.0036113794788535476,-0.020639054514702892,0.998140315808041,0.05724419032201548,-0.016325214877724648,0.005587182007730007,1.287297248840332,0.004166007041931152,-0.778115451335907,9.791420516967774
1713795743,625000000,0.005298552502542234,-0.02089052802430337,0.9987832093782172,0.04435777095833186,-0.0014260634779930115,0.003458731807768345,1.2947468757629395,0.28668180108070374,-0.4070141911506653,9.812967834472657
1713795743,646000000,0.006151932184859687,-0.019255910747516026,0.9993182174034716,0.030894400742277683,-0.005682963877916336,0.00026605650782585144,1.2867650985717773,0.32738324999809265,-0.01915353536605835,9.27666717529297
1713795743,666000000,0.006220912040726643,-0.021385878941721705,0.9995878195083574,0.01811451147006144,-0.008343527093529701,0.0029266192577779293,1.27825129032135,0.198096364736557,-0.677558958530426,10.28462558746338
1713795743,688000000,0.007909533194025981,-0.022160741064617975,0.9997149105034799,0.004054449054886511,0.0022987239062786102,0.008247744292020798,1.2825082540512085,0.21485576033592224,-0.46208083629608154,10.28462558746338
1713795743,710000000,0.008706522175402121,-0.02394579996349456,0.9996253629184569,-0.00999644666172808,0.004959287121891975,0.022082671523094177,1.2798477411270142,0.4111802875995636,-0.7637502551078796,10.109849510192872
1713795743,731000000,0.009169429467018757,-0.025953424355198575,0.9993480956215662,-0.023360759941341302,-0.005682963877916336,0.02261478453874588,1.275058627128601,0.2507688105106354,-0.6224923729896545,9.563971099853516
1713795743,768000000,0.008103067387540089,-0.022320640435386827,0.9985962870775953,-0.047345377222153824,0.008684074506163597,0.023679008707404137,1.3000680208206177,0.17654851078987122,0.1077391654253006,9.506510314941407
1713795743,790000000,0.007195756842937486,-0.020398786838924068,0.9978750629614962,-0.06146112021878014,-0.01153620146214962,0.02261478453874588,1.2867650985717773,0.09514567255973816,-0.11252740025520325,9.207234916687012
1713795743,811000000,0.007405996287267156,-0.01861425888785285,0.9970092762296167,-0.07464022841032172,-0.00993986614048481,0.01729365810751915,1.2612237930297852,0.198096364736557,-0.2370258867740631,10.31814437866211
1713795743,825000000,0.008190253302893849,-0.017833100841212795,0.9963239684943406,-0.08338734957360022,0.0038950610905885696,0.025275347754359245,1.2580311298370361,0.37526729702949524,-0.22266067564487457,10.04759937286377
1713795743,845000000,0.009286326468161975,-0.019444756267741902,0.9951548857918573,-0.09592923891603847,-0.021646341308951378,0.023679008707404137,1.262287974357605,0.4566701352596283,-0.6751647591590881,9.58312469482422
1713795743,886000000,0.012307876862809897,-0.01981861403687041,0.9923098024675858,-0.12156066235229225,0.013473087921738625,0.0258074589073658,1.2628201246261597,0.16936591267585754,-0.4022257924079895,9.846486625671387
1713795743,907000000,0.011959648330523504,-0.017990301424839168,0.9906292782784802,-0.13485899630321527,-0.006215076893568039,0.026871684938669205,1.2803797721862793,0.23640355467796326,-0.24420848488807678,10.081119117736817
1713795743,928000000,0.009497398925742757,-0.01905097180327945,0.9887024125843589,-0.1483725016196201,-0.019517889246344566,0.02421112172305584,1.296875238418579,-0.3142628073692322,-0.48123443126678467,9.982956466674805
1713795743,948000000,0.009779384596349465,-0.017477263953786102,0.9867158731088532,-0.16121629767687826,-0.01153620146214962,0.0258074589073658,1.3037927150726318,0.41836288571357727,0.08140294253826141,9.856063423156739
1713795743,970000000,0.009923382878297821,-0.015727655697980406,0.9843606434105445,-0.1751807381616923,-0.01845366694033146,0.019954221323132515,1.2910220623016357,0.3848440945148468,0.19393043220043182,9.657345352172852
1713795743,993000000,0.009891842074397425,-0.01382581698340864,0.9817378650053847,-0.189477604639138,-0.01685732789337635,0.01729365810751915,1.2670769691467285,0.19330796599388123,-0.1436520218849182,9.391588745117188
1713795744,6000000,0.010750933037775155,-0.01481875626440875,0.9801577120133231,-0.19737193691708263,-0.012600427493453026,0.0077156322076916695,1.2399392127990723,0.4087860882282257,-0.634463369846344,10.327721176147461
1713795744,86000000,0.015439038409327864,-0.010056186121094157,0.9693686021757405,-0.2449183993283152,-0.005682963877916336,0.009311970323324203,1.2239758968353271,0.5069483518600464,-0.09097958356142044,9.698046264648438
1713795744,107000000,0.013115115701509928,-0.009415113690586709,0.96618726405102,-0.25733542344561544,0.002830836921930313,0.02740379609167576,1.2207832336425781,-0.09878465533256531,0.0143653005361557,9.585519371032715
1713795744,128000000,0.014917858183927981,-0.00940953757133187,0.962804329028683,-0.26962333377051345,-0.0035545136779546738,0.016761545091867447,1.2165262699127197,0.5261019468307495,-0.29688093066215515,10.13618522644043
1713795744,150000000,0.014812046195520779,-0.0074464682357248705,0.959144145216111,-0.2824316945669729,-0.0019581764936447144,0.006119294557720423,1.2143977880477905,0.2986527979373932,0.0023942887783050537,9.331733283996583
1713795744,164000000,0.013701558089302911,-0.006710425176456847,0.95673526333194,-0.29055958665485476,-0.010471975430846214,0.004522956907749176,1.2122694253921509,0.17415431141853333,-0.12210419774055481,9.621431884765625
1713795744,186000000,0.012100288150043208,-0.008642191836886498,0.9528089981708052,-0.30320604966208553,0.010280411690473557,0.019422108307480812,1.2010949850082397,-0.3094744086265564,-0.612915575504303,9.822544631958008
1713795744,229000000,0.011470067344351641,-0.005219211631281179,0.9445578002174916,-0.32810327556023783,-0.02377478964626789,0.009311970323324203,1.2229115962982178,0.23161515593528748,0.026336297392845154,9.743536529541016
1713795744,243000000,0.012569595033011145,-0.00448863528307177,0.9418225329255426,-0.33584546134750276,-0.017921553924679756,-0.007715631742030382,1.1755536794662476,0.41836288571357727,-0.07182596623897552,9.800997314453125
1713795744,263000000,0.012734381150520743,-0.002564046872034313,0.9379459613953649,-0.3465380710722502,0.0017666108906269073,-0.01569731906056404,1.139902114868164,0.33217164874076843,0.11971016228199005,10.40673023223877
1713795744,284000000,0.014924404035090384,-0.003234001944873863,0.9338020113789948,-0.3574641337815053,-0.01845366694033146,-0.008779855445027351,1.1132965087890625,0.636235237121582,-0.3806779980659485,10.231953201293946
1713795744,307000000,0.014042118548838732,-0.006013483150904808,0.9291951330795379,-0.36927369468776666,-0.026967467740178108,0.025275347754359245,1.0999935865402222,-0.0006223917007446289,-0.4668692350387573,9.487356719970704
1713795744,329000000,0.013963033643117741,-0.004289132138499274,0.9246494133526669,-0.3805392219253467,-0.01685732789337635,0.030064359307289124,1.1079753637313843,0.5237077474594116,0.4046201705932617,9.441866455078125
1713795744,361000000,0.012902557551693918,-0.0012722908790773076,0.9195789169251833,-0.3926913811522368,0.009748299606144428,0.0018623941577970982,0.8254236578941345,0.571591854095459,3.3303346633911133,9.726776657104493
1713795744,384000000,0.01234656116428582,0.0008019317132600314,0.9174031704357929,-0.39776669318496133,-0.0072793010622262955,0.0013302816078066826,0.48274314403533936,0.7415801286697388,3.184288501739502,10.035628852844239
1713795744,405000000,0.011580118843383344,0.002758374424975886,0.9169038746690074,-0.39893054136662215,0.0022987239062786102,0.010908307507634163,0.12303506582975388,0.4806121289730072,2.518700361251831,10.246318397521973
1713795744,427000000,0.009012386615377213,0.0027818279205733903,0.91772802228004,-0.39709736267429624,-0.0019581764936447144,0.03751393407583237,-0.18186542391777039,-0.09878465533256531,0.13407538831233978,9.595096168518067
1713795744,448000000,0.009166927792037436,0.0005762393850162331,0.9189249449114752,-0.39432547597444034,-0.006215076893568039,0.026339571923017502,-0.289352148771286,-0.24243676662445068,-1.8962076902389526,9.599884567260743
1713795744,471000000,0.00936140635495901,-0.0017994769514822688,0.919770349801444,-0.392341215754715,-0.008875640109181404,0.0018623941577970982,-0.18931500613689423,-0.357358455657959,-1.6160861253738403,10.057176170349122
1713795744,484000000,0.009366936810148063,-0.0031644022798753284,0.9198981696314651,-0.3920326575193529,-0.0046187397092580795,0.01729365810751915,-0.05309419333934784,-0.09639045596122742,-0.8307878971099854,9.652556953430176
1713795744,504000000,0.008988353891312336,-0.005200052292695894,0.9198650041101767,-0.3920976194315164,0.0017666108906269073,0.016229433938860893,0.005438188090920448,-0.24243676662445068,-0.8259994983673096,10.131396827697754
1713795744,525000000,0.007511130787614564,-0.0069594355805549174,0.9197244194129441,-0.3924310659290549,-0.00036183930933475494,0.020486334338784218,0.032575927674770355,-0.2615903615951538,-0.3758895993232727,9.68368106842041
1713795744,545000000,0.0053997178201721325,-0.006402120031062251,0.9196470057437723,-0.39265664483500656,0.007619849406182766,0.01729365810751915,0.0229979008436203,-0.2137063443660736,0.059855133295059204,9.717199859619141
1713795744,565000000,0.0032472354380511607,-0.0063399333751362015,0.9196697739454532,-0.3926280270153007,0.005491400137543678,0.014100982807576656,-0.0046719517558813095,-0.11075568199157715,-0.08379697799682617,9.906342086791993
1713795744,586000000,0.001976530044559365,-0.008184706008745598,0.9197278277640845,-0.392466338369155,0.0007023867219686508,0.016229433938860893,-0.017442652955651283,-0.12751507759094238,-0.23463168740272522,9.791420516967774
1713795744,606000000,0.002648807509150853,-0.0101401666950863,0.9197651999859051,-0.3923291191500617,-0.006215076893568039,0.013568870723247528,-0.013717865571379662,-0.029352813959121704,-0.4692634344100952,9.748324928283692
1713795744,626000000,0.004103248076297987,-0.01156052968518993,0.9197842536199383,-0.3922326405354801,-0.006747189909219742,0.007183519657701254,-0.008396739140152931,0.14302971959114075,-0.574608325958252,9.947042999267579
1713795744,647000000,0.005770763161426959,-0.012789035138194113,0.9197975817547585,-0.39214225412580467,-0.0035545136779546738,0.010908307507634163,-0.006800400093197823,0.15021231770515442,-0.4884170889854431,9.86564022064209
1713795744,667000000,0.00712015787286571,-0.014159831384710502,0.919792060510975,-0.3920859190891675,0.0017666108906269073,0.015165207907557487,-0.0036077257245779037,0.09275147318840027,-0.45729243755340576,9.765083847045899
1713795744,687000000,0.008254788017899225,-0.01265581020552135,0.9198207419944471,-0.3920478179248115,0.0033629480749368668,0.015165207907557487,-0.0014792755246162415,0.04486742615699768,-0.29688093066215515,9.820150909423829
1713795744,707000000,0.006113932562058444,-0.013102067212115433,0.9198024836683454,-0.3921152212053731,0.0022987239062786102,0.018357884138822556,0.0043739620596170425,-0.1227266788482666,-0.25378531217575073,9.769872245788575
1713795744,728000000,0.003982255629316263,-0.013951171489870452,0.9197686180561172,-0.3921928042344775,0.0012344997376203537,0.018357884138822556,0.005438188090920448,-0.17539910972118378,-0.27772730588912964,9.767478523254395
1713795744,749000000,0.0025919846378895423,-0.015730655576873746,0.9197330575483852,-0.3922205131599536,-0.0008939523249864578,0.016761545091867447,0.0017134007066488266,-0.2137063443660736,-0.38786059617996216,9.77466064453125
1713795744,761000000,0.002546866194122314,-0.016975997083072233,0.9197212769284058,-0.3921965091134893,-0.0014260634779930115,0.016229433938860893,-0.003075612708926201,-0.13948610424995422,-0.4716576337814331,9.77226692199707
1713795744,781000000,0.003463221773777524,-0.01876212772391083,0.9197155931447373,-0.39212143066229027,-0.0019581764936447144,0.011972532607614994,-0.005204064771533012,-0.07005423307418823,-0.4429272413253784,9.896765289306641
1713795744,803000000,0.005295580323356524,-0.01774549163138868,0.9197687412728132,-0.3920236178257939,-0.00036183930933475494,0.009844082407653332,-0.00626828707754612,0.028108030557632446,-0.3567359745502472,9.908735809326172
1713795744,826000000,0.006842657769607403,-0.016235739326314412,0.9198232113054154,-0.3919372893040021,-0.00036183930933475494,0.013036757707595825,-0.005204064771533012,0.1095108687877655,-0.3040635287761688,9.77466064453125
1713795744,849000000,0.007006792070896157,-0.014005624724242358,0.9199045770717995,-0.3918294481318532,-0.00036183930933475494,0.010908307507634163,-0.009460965171456337,0.19091376662254333,-0.009576722979545593,9.765083847045899
1713795744,862000000,0.00656414700627435,-0.01280109424100139,0.9199899059355898,-0.3916779505370929,-0.0019581764936447144,0.009311970323324203,-0.025956453755497932,0.05444425344467163,0.062249332666397095,9.985350189208985
1713795744,885000000,0.004703686150930243,-0.011331401788529946,0.9202853696478782,-0.3910553836506653,-0.0024902895092964172,0.019954221323132515,-0.06054376810789108,-0.7045177221298218,1.357512354850769,11.043587265014649
1713795744,907000000,0.002900378581092883,-0.009646206459019074,0.9211541527173119,-0.38906755896204875,0.007087737321853638,0.06571590155363083,-0.19676457345485687,-0.6638162732124329,4.537012577056885,8.342928466796875
1713795744,929000000,0.0021872030429115207,-0.007543081837594572,0.9235367890959751,-0.3834294162496362,0.0022987239062786102,0.005587182007730007,-0.556472659111023,0.10472247004508972,1.5107413530349731,9.245542106628418
1713795744,964000000,0.0051062890335101755,-0.010400094397042887,0.9290249901120065,-0.3698355466909922,-0.022710567340254784,-0.02580745704472065,-0.837428092956543,0.7056671380996704,-2.5043349266052246,10.366028366088868
1713795744,987000000,0.005324659293076077,-0.012525988936184267,0.9320133439810193,-0.36216829547311474,0.01985843852162361,0.04177083447575569,-0.715574324131012,-0.24243676662445068,-3.224989414215088,9.578336296081543
1713795745,9000000,0.005296030514339559,-0.014501981919770344,0.9341437890018429,-0.35656279397950397,0.032629139721393585,0.05826632305979729,-0.5447661876678467,-0.13948610424995422,-2.0231003761291504,9.417924461364747
1713795745,65000000,0.004328371300212731,-0.02004365105611301,0.934142984017005,-0.35630941983904063,0.008151961490511894,0.01729365810751915,-0.009460965171456337,-0.5728365778923035,-1.5131354331970215,10.215194282531739
1713795745,86000000,0.0019389203156160153,-0.01944576445290673,0.9334678971326446,-0.35812817238470684,0.0017666108906269073,0.03804604709148407,0.18209955096244812,-0.5321351885795593,0.03351891040802002,9.446654853820801
1713795745,108000000,0.001037077353065738,-0.01755028806313275,0.9326439963306928,-0.36036937712266764,-0.010471975430846214,0.023679008707404137,0.21668687462806702,-0.029352813959121704,0.6560113430023193,9.180899200439454
1713795745,130000000,0.002434556384192436,-0.015621376348302154,0.9321319201303927,-0.36177358804952053,-0.005150852724909782,-0.02580745704472065,0.13740210235118866,0.3082296550273895,-0.02154773473739624,10.334904251098633
1713795745,162000000,0.0031375082460247793,-0.012752838368845611,0.9320493435685008,-0.36209327846436357,0.0017666108906269073,0.026871684938669205,0.022465789690613747,0.13824132084846497,-0.06703756749629974,9.575942573547364
1713795745,185000000,0.005258068242256117,-0.012761848154469912,0.9321073949655443,-0.3619189027953483,0.0022987239062786102,0.016229433938860893,-0.013185752555727959,0.16936591267585754,-0.3327939510345459,9.911130485534668
1713795745,208000000,0.006240718352103614,-0.014832245605405327,0.9321721580565903,-0.3616574700858116,-0.00036183930933475494,0.011972532607614994,-0.022763775661587715,0.03529062867164612,-0.5003880858421326,10.004503784179688
1713795745,228000000,0.0044956128300287475,-0.01619963812627179,0.9321874773108463,-0.361585215868543,0.0012344997376203537,0.023146895691752434,-0.00999307818710804,-0.15624549984931946,-0.3711012005805969,9.784237442016602
1713795745,250000000,0.0020779391776823133,-0.01597098368390168,0.932155274520779,-0.36170036498742125,0.0017666108906269073,0.022082671523094177,0.008098749443888664,-0.1730049103498459,-0.24420848488807678,9.662133750915528
1713795745,262000000,0.0008045084782147782,-0.01590761735133747,0.9321293582121764,-0.3617750130056911,-0.0014260634779930115,0.014100982807576656,0.010227201506495476,-0.2663787603378296,-0.21308386325836182,9.83212142944336
1713795745,282000000,0.0005408993624770463,-0.01795652748140217,0.9321112928708273,-0.3617261509088939,-0.0014260634779930115,0.011972532607614994,-0.004139838740229607,-0.16342811286449432,-0.43095624446868896,9.733959732055665
1713795745,305000000,0.0017822939195310389,-0.019881580857705798,0.9321243265961426,-0.3615878675213956,-0.0014260634779930115,0.009844082407653332,-0.009460965171456337,-0.04371801018714905,-0.6200981736183167,9.839304504394532
1713795745,325000000,0.0036374573350044935,-0.020397084592173112,0.9321315865091646,-0.36152653191181355,-0.00036183930933475494,0.009844082407653332,-0.0020113885402679443,0.12387612462043762,-0.5410894751548767,9.884793815612793
1713795745,345000000,0.0050530988409888565,-0.01919052042137682,0.9321388097540755,-0.3615569519015165,0.00017027370631694794,0.014633094891905785,0.006502412259578705,0.10711666941642761,-0.3351881504058838,9.726776657104493
1713795745,367000000,0.005950908690579368,-0.017273112002031046,0.9321567329518947,-0.36159376584776987,0.0012344997376203537,0.011440420523285866,0.005438188090920448,0.4327281415462494,0.03591310977935791,9.67171054840088
1713795745,389000000,0.007227837889533274,-0.01532498316848047,0.9322834900776461,-0.36133142318233563,0.0012344997376203537,-0.013036755844950676,-0.02382800169289112,1.3401305675506592,0.6943185925483704,9.484962043762208
1713795745,402000000,0.008816148273550851,-0.01515078008151821,0.9324967269768123,-0.3607528011950464,-0.004086626693606377,-0.04496351256966591,-0.09247051924467087,1.4478696584701538,-0.7661444544792175,9.587913093566895
1713795745,426000000,0.01140177745241454,-0.01644355359734644,0.9328234804022235,-0.3597776583201066,-0.01153620146214962,-0.05028463527560234,-0.08502094447612762,1.9075562953948975,-3.17710542678833,11.065135536193848
1713795745,449000000,0.013513396168493555,-0.015701271222372783,0.9325044410239428,-0.3605638995748448,-0.007811414077877998,0.0039908443577587605,0.07780549675226212,1.9985361099243164,-0.31603455543518066,8.714029846191407
1713795745,484000000,0.01935149775310373,-0.013822067645793919,0.9319585454674569,-0.36178410621652335,-0.011004088446497917,-0.15138602256774902,0.07727338373661041,3.684053897857666,-0.6248865723609924,12.125767288208008
1713795745,506000000,0.022610676093746354,-0.01227835877937102,0.9318023412735892,-0.3620530293055513,0.011344637721776962,-0.1279730647802353,0.029383253306150436,5.2187371253967285,-0.09097958356142044,10.138579902648926
1713795745,529000000,0.024624289763688408,-0.01118760624495614,0.9317254035140816,-0.3621550141398896,0.01772998832166195,0.0018623941577970982,0.014484100975096226,5.01283597946167,-0.22026647627353668,10.040417251586915
1713795745,542000000,0.025306139137041845,-0.010863629562563953,0.931702813848172,-0.3621759897371754,0.006023511290550232,0.08380772918462753,0.009695088490843773,4.0503668785095215,-0.3591301739215851,10.473767814636231
1713795745,562000000,0.024714595362110698,-0.009499781776868515,0.9317798570395309,-0.36205695814011146,0.02305111289024353,0.1620282679796219,-0.005736174061894417,2.5085010528564453,1.3431471586227417,9.585519371032715
1713795745,585000000,0.02523527505604552,-0.010506302287269516,0.9321072831850804,-0.3611492920364412,0.006023511290550232,0.16043193638324738,-0.0802319347858429,1.8453071117401123,-1.2473790645599365,8.692481575012208
1713795745,607000000,0.0270197852428947,-0.011652034593327159,0.9322571606255593,-0.3605977644933949,-0.008875640109181404,0.021550558507442474,-0.05149785429239273,0.9426931142807007,-0.9720457792282104,11.781001625061036
1713795745,631000000,0.025130043391254013,-0.014461339175331267,0.9321679628586347,-0.3608631868290155,0.0007023867219686508,0.1130739226937294,0.01980522647500038,0.006560206413269043,-0.9169791340827942,9.382011947631836
1713795745,666000000,0.028184198193740777,-0.010861678721599313,0.9318993828847816,-0.36145707225960877,0.007087737321853638,-0.07955082505941391,0.041089728474617004,1.4358986616134644,0.3902549743652344,9.841698226928711
1713795745,688000000,0.033412961845710895,-0.009290690529434133,0.9317851135021964,-0.36134991255828786,-0.06740802526473999,-0.29718485474586487,-0.005204064771533012,2.9298806190490723,-0.2561795115470886,14.393075523376465
1713795745,711000000,0.03673333150368752,-0.009175445972694284,0.9318625568829837,-0.36083049847172066,-0.021114228293299675,-0.08700039982795715,-0.04404827952384949,1.6058869361877441,-0.8714893460273743,11.563129959106446
1713795745,725000000,0.03683488823373677,-0.00903324714258075,0.9319744661228709,-0.36053458356981394,0.0092161875218153,0.17958799004554749,-0.03713081777095795,2.5922980308532715,-0.23463168740272522,6.166598854064942
1713795745,745000000,0.03470826553046068,-0.011236548531743305,0.9321132577179819,-0.360324785530127,-0.0014260634779930115,0.12531250715255737,-0.02914912812411785,-0.1466687023639679,-1.0845732688903809,10.095484313964844
1713795745,767000000,0.032523468080986585,-0.013037361762239191,0.932169463144521,-0.36032255439136934,0.006023511290550232,0.06465167552232742,-0.0073325131088495255,0.320200651884079,-0.6871358156204224,11.486514625549317
1713795745,790000000,0.029663957823628212,-0.014489386303471675,0.9321404024316584,-0.3605889313960329,0.005491400137543678,0.08008293807506561,0.018741000443696976,-0.4986163377761841,-0.634463369846344,9.79860263824463
1713795745,824000000,0.02627901154117183,-0.014997364851657983,0.9320044718347154,-0.36118161232269064,0.024115338921546936,-0.0029266183264553547,0.030447477474808693,-0.501010537147522,-0.3136403560638428,8.381235656738282
1713795745,846000000,0.02494559193042261,-0.015683945140596213,0.9318669141988417,-0.36160169458894476,-0.013664653524756432,-0.06518378853797913,0.034172266721725464,0.198096364736557,-0.474051833152771,10.117031631469727
1713795745,868000000,0.024848139425951488,-0.013496942497087069,0.9317775603809688,-0.36192676121114475,-0.007811414077877998,-0.09817476570606232,0.030979590490460396,0.23400935530662537,0.4070143699645996,11.273431358337403
1713795745,890000000,0.02780111215223451,-0.012745683020774999,0.9316971569676058,-0.3619462023918935,-0.04771985858678818,-0.07582603394985199,0.008098749443888664,1.3114001750946045,-0.4046199917793274,10.902329978942872
1713795745,902000000,0.029163408849912593,-0.012643962953769168,0.9316860341536182,-0.3618711919290892,-0.02909591607749462,-0.021550556644797325,-0.0073325131088495255,0.8756554126739502,-0.5051764845848083,9.453837928771973
1713795745,944000000,0.03152293352471387,-0.0157301517624327,0.9315362863062948,-0.3619378596972197,0.0007023867219686508,0.03857816010713577,0.0043739620596170425,0.7080613374710083,-0.9888051748275757,9.192869720458985
1713795745,964000000,0.03292539121369317,-0.014162111579087049,0.9313955794309483,-0.3622397380541435,0.03316125273704529,0.0013302816078066826,0.03896127641201019,1.0983161926269531,-0.3567359745502472,10.638968048095704
1713795745,985000000,0.031748505074499056,-0.012085257455426395,0.9313663436919424,-0.3624951210922338,0.0262437891215086,0.019954221323132515,0.02831902727484703,0.5308903455734253,0.05267252027988434,11.146538314819336
1713795746,5000000,0.029249312388528136,-0.011557634133070174,0.9313872611580258,-0.36266881389305516,0.014005200006067753,0.05879843607544899,0.01608043909072876,-0.6326916217803955,0.4740520119667053,9.688469467163086
1713795746,60000000,0.02613487384273906,-0.014901895919026997,0.9318159781588138,-0.36168202155370627,0.02464745193719864,-0.023679008707404137,-0.0461767315864563,-0.23525415360927582,-0.8906429409980774,11.07231861114502
1713795746,84000000,0.024475922799641062,-0.01662867614142997,0.931833322329015,-0.3616781383083028,0.008684074506163597,0.0039908443577587605,-0.006800400093197823,-0.4291844964027405,-0.8499414920806885,9.40355926513672
1713795746,104000000,0.025001735044884284,-0.018907139457816066,0.9316699929048282,-0.36195090501749744,-0.031224368140101433,0.023146895691752434,0.028851140290498734,0.2220383584499359,-1.5825673341751099,8.28067928314209
1713795746,126000000,0.026617236526096585,-0.02028010519153245,0.9313193531627876,-0.3626630701871658,0.015069425106048584,-0.015165207907557487,0.07035592198371887,0.37287309765815735,-0.6464343667030334,9.563971099853516
1713795746,147000000,0.027624738776951808,-0.018116174871763917,0.9309413468793348,-0.3636713993236351,0.0022987239062786102,-0.0433671735227108,0.10760379582643509,0.7655221223831177,-0.18674764037132263,11.43623691558838
1713795746,182000000,0.025336167245314203,-0.0147672017601657,0.9309016396695188,-0.36409084806143327,0.028904352337121964,0.022082671523094177,0.02619057707488537,0.13345292210578918,0.924161970615387,9.013304290771485
1713795746,204000000,0.023912393316417223,-0.01648100294041182,0.9310077241931128,-0.36384226181234053,-0.03707760572433472,-0.012504644691944122,-0.029681241139769554,-0.4267902970314026,-0.656011164188385,9.008515892028809
1713795746,226000000,0.026623465925765602,-0.017221171094395752,0.9310706133458727,-0.36345857438225027,-0.003022400662302971,-0.07210125029087067,-0.03553447872400284,0.8301656246185303,-1.0630254745483398,10.830503997802735
1713795746,248000000,0.026679148090731093,-0.014410586820510426,0.9311563110375223,-0.3633572380724437,0.043271392583847046,-0.0438992865383625,-0.008396739140152931,0.4039976894855499,-0.3327939510345459,9.686075744628907
1713795746,282000000,0.02266690641192319,-0.016138760210084802,0.9310994829181422,-0.3637024947428364,0.0012344997376203537,0.05666998401284218,0.016612552106380463,-0.47946274280548096,-0.5027822852134705,9.982956466674805
1713795746,302000000,0.020595138621394074,-0.015941948727776798,0.9310571453877721,-0.3639426968058291,0.01081252470612526,0.003458731807768345,0.020869452506303787,-0.01738181710243225,-0.3112461566925049,9.817756233215333
1713795746,323000000,0.019479419194385023,-0.014257160721386695,0.9310278239492069,-0.36414897587171463,-0.0035545136779546738,-0.01569731906056404,0.020337339490652084,-0.036535412073135376,0.5650317072868347,9.322156486511231
1713795746,343000000,0.017665344502545057,-0.013971080186127686,0.930996619056275,-0.36433232059182535,-0.023242680355906487,-0.004522956442087889,0.016612552106380463,-0.3525700569152832,0.023942098021507263,10.277443466186524
1713795746,363000000,0.01707779858780858,-0.012851144126492086,0.9309794364613408,-0.36444544965763886,-0.07219703495502472,-0.014100981876254082,0.013419875875115395,0.16697171330451965,0.06943193078041077,10.267866668701172
1713795746,386000000,0.018715286849833757,-0.015167690335018252,0.9308991172068852,-0.3644811556054325,-0.04239872843027115,-0.02580745704472065,0.0038418490439653397,0.2986527979373932,-0.8954313397407532,9.034852561950684
1713795746,406000000,0.019940262899787897,-0.01329923143166854,0.930877232780075,-0.36454505050888364,-0.0072793010622262955,-0.03644971176981926,0.01075931265950203,0.5979280471801758,-0.052672356367111206,9.573547897338868
1713795746,427000000,0.02198212515126265,-0.01468378208797761,0.930872593924099,-0.3643863150537442,-0.031756483018398285,-0.01569731906056404,-0.013717865571379662,0.8062236309051514,-1.1300631761550903,10.073936042785645
1713795746,463000000,0.018333903536665065,-0.017254634034838432,0.9308146372583758,-0.36462344501004107,0.02305111289024353,0.05826632305979729,0.00916297547519207,-0.06526583433151245,-0.5841851234436035,9.76269012451172
1713795746,486000000,0.019511077189680124,-0.017199757694543183,0.930670886206951,-0.36493175768753744,0.021986888721585274,0.094449982047081,0.03523649275302887,0.8181946277618408,-0.5530605316162109,8.160969314575196
1713795746,508000000,0.017408968758567723,-0.01587166186880293,0.9305530091415423,-0.36539857051431734,0.005491400137543678,0.040706608444452286,0.04428240656852722,-0.13469767570495605,0.25378549098968506,9.891976890563965
1713795746,520000000,0.01659376398474925,-0.014928935588571057,0.9305481000976912,-0.36548872388021475,0.002830836921930313,0.01729365810751915,0.015548326075077057,-0.12990927696228027,0.8547300696372986,10.26068359375
1713795746,540000000,0.015535502270358631,-0.017056646590889978,0.9305976580396984,-0.3653159151026814,-0.05836211144924164,0.0039908443577587605,-0.021699553355574608,0.16936591267585754,-0.38546639680862427,9.41313606262207
1713795746,564000000,0.01852423920127973,-0.01756060178000658,0.9306460755466163,-0.3650292589599078,-0.025371128693223,-0.046027738600969315,-0.021699553355574608,0.3609020411968231,-0.533906877040863,9.463414726257325
1713795746,588000000,0.019989865559434557,-0.019442380475171227,0.9306183966306192,-0.3649271145982852,0.0092161875218153,-0.05347731336951256,-0.010525187477469444,0.21246156096458435,-1.2473790645599365,9.291032371520997
1713795746,622000000,0.018867093259085393,-0.015806305918281624,0.9304079052117828,-0.36569840497955775,0.02996857650578022,0.030596472322940826,0.05066775530576706,0.39920929074287415,0.004788488149642944,11.177663383483887
1713795746,642000000,0.01612409058833428,-0.014737019410343445,0.9303510357480896,-0.36601883045009487,0.015601538121700287,0.13861532509326935,0.03523649275302887,-0.18258172273635864,0.5626375079154968,9.283849296569825
1713795746,662000000,0.013487085591951291,-0.013966762759249938,0.9304235785608369,-0.3659713001292703,-0.014196766540408134,0.13542264699935913,-0.004139838740229607,0.016137033700942993,-0.004788324236869812,8.742760238647461
1713795746,684000000,0.011724152801540952,-0.015676311356896393,0.930507414255886,-0.3657495721366639,-0.038673944771289825,0.011972532607614994,-0.024892227724194527,-0.5249525308609009,-0.5051764845848083,9.573547897338868
1713795746,708000000,0.013343639761748412,-0.013324493734792244,0.9305451097633481,-0.3656914052040852,-0.019517889246344566,-0.06784434616565704,-0.0036077257245779037,0.27949920296669006,-0.2873041033744812,12.381946144104004
1713795746,743000000,0.0102240868119181,-0.01804793402999016,0.9303927966484061,-0.36597675345692265,-0.05357309430837631,0.11413814127445221,0.017144663259387016,-0.6566336154937744,-0.9528921842575073,7.840145645141602
1713795746,766000000,0.0077143033677029,-0.0196155816669953,0.9304225850760423,-0.36588185478352336,-0.008875640109181404,0.05666998401284218,-0.01158941350877285,-0.8840827941894531,-0.5075706839561462,7.9837976074218755
1713795746,780000000,0.008049290851225209,-0.020751014422403073,0.930468946887323,-0.3656940568229539,0.025179563090205193,-0.033789146691560745,-0.02914912812411785,-0.18258172273635864,-1.1109094619750977,9.322156486511231
1713795746,804000000,0.00810287638726542,-0.022490124757038137,0.9304243475864186,-0.3657035289699199,0.01613365113735199,-0.08008293807506561,-0.002543499693274498,-0.3956656754016876,-0.9864109754562378,11.721147117614747
1713795746,824000000,0.0074183918119127825,-0.020201301790271808,0.9303483972864872,-0.3660447165789556,0.03901448845863342,-0.03804604709148407,0.03310804069042206,-0.10596725344657898,0.5339070558547974,10.902329978942872
1713795746,844000000,0.006165125769792432,-0.02230197772992414,0.9302699073790501,-0.36614547988272383,-0.012068314477801323,0.04815618321299553,0.010227201506495476,-0.5177699327468872,-0.8834603428840637,9.348493156433106
1713795746,867000000,0.0038797062146502647,-0.023800366625040714,0.9301976947430185,-0.3662659404353292,0.002830836921930313,0.03911026939749718,0.008630862459540367,-0.5680481791496277,-0.5315126776695251,8.529676017761231
1713795746,905000000,0.007458495403363173,-0.021347636315989998,0.9299081898195295,-0.3670959108688137,0.014537312090396881,-0.026871683076024055,0.050135642290115356,1.3808320760726929,-0.22026647627353668,10.536016998291016
1713795746,928000000,0.009530293446437604,-0.022141656777341756,0.9297653354036741,-0.36736268403809424,-0.00036183930933475494,0.009311970323324203,0.02991536445915699,0.4782179296016693,-0.9409211874008179,11.412294921875
1713795746,942000000,0.008935543549863069,-0.020659837037983717,0.9296824394610705,-0.36767361742820936,0.03369336575269699,0.046027734875679016,0.048007190227508545,0.2028847634792328,0.32321733236312866,9.896765289306641
1713795746,962000000,0.007588673704754619,-0.018999200713859233,0.9296043628923361,-0.36799072120798276,0.004959287121891975,0.08061505109071732,0.03470437973737717,0.08796307444572449,0.49081146717071533,8.61107879638672
1713795746,983000000,0.005023474958649677,-0.018987750514043094,0.9297309244855928,-0.36771543084961983,-0.007811414077877998,0.05347730964422226,-0.031277574598789215,-1.2408188581466675,0.3591303825378418,8.491368827819825
1713795747,5000000,0.0037535199336850926,-0.01844522601050071,0.9299624039014122,-0.36717245546940946,-0.052508868277072906,-0.05188097432255745,-0.05788320302963257,-0.2663787603378296,-0.1939302533864975,10.538410720825196
1713795747,81000000,0.008618948884909562,-0.018291514352924008,0.9290462697720606,-0.3694105613614958,-0.024306902661919594,0.0774223804473877,0.06875958293676376,0.8445308208465576,-0.45729243755340576,10.002110061645508
1713795747,103000000,0.009702123942265448,-0.016505542936484083,0.9288686490325964,-0.36991413691252784,0.027840126305818558,0.02793590910732746,0.05279620736837387,1.055220603942871,0.08858554065227509,10.1026664352417
1713795747,123000000,0.011400541543883898,-0.01648439280029359,0.9287944031533572,-0.37005303554694824,0.041142940521240234,0.013036757707595825,0.018741000443696976,0.4039976894855499,-0.5865793228149414,10.112243232727051
1713795747,143000000,0.011667862423615546,-0.014659254372671798,0.9288635870427269,-0.36994783945013054,0.02464745193719864,0.05560576170682907,-0.007864626124501228,0.49018892645835876,-0.014365121722221375,9.805785713195801
1713795747,165000000,0.00883072874705093,-0.014216107343921772,0.9289881742202143,-0.3697308381522629,0.0038950610905885696,0.07210125029087067,-0.023295888677239418,-0.2663787603378296,-0.007182523608207703,8.682904777526856
1713795747,207000000,0.009852581203068166,-0.009810997101041068,0.9288844015982965,-0.3701086859922297,-0.020582115277647972,-0.09125729650259018,0.018208889290690422,0.0831746757030487,-0.23223748803138733,10.796985206604004
1713795747,221000000,0.010511702020322781,-0.010989382692143978,0.9288234865655206,-0.3702103029265279,0.008684074506163597,-0.013036755844950676,0.015548326075077057,0.181336909532547,-1.4987702369689941,9.40116554260254
1713795747,244000000,0.01065878370473394,-0.013162439719764647,0.9286564786809078,-0.3705540245558482,0.01985843852162361,0.05294519662857056,0.032575927674770355,0.05683845281600952,-2.2697031497955322,9.1306205368042
1713795747,266000000,0.012370215283036053,-0.012921682797580141,0.9281157483530413,-0.3718617559612769,0.06083110719919205,0.019954221323132515,0.13101674616336823,1.522089958190918,-1.137245774269104,10.77064853668213
1713795747,290000000,0.01368363758973628,-0.014457774924421721,0.9268212515272517,-0.3749747971850993,0.027840126305818558,0.01569732092320919,0.2810724973678589,0.9929713010787964,-2.475604295730591,13.624537048339844
1713795747,324000000,0.00811769873411222,-0.01635332491907783,0.9238729202125879,-0.3822636512006055,-0.05836211144924164,0.15404658019542694,0.46305498480796814,-0.8074683547019958,0.1077391654253006,8.223218498229981
1713795747,345000000,0.005838721411320814,-0.016855185299676962,0.922153907032431,-0.38641167659067593,-0.024306902661919594,0.021550558507442474,0.4247428774833679,-0.9702740907669067,-0.04070134460926056,10.332509574890137
1713795747,367000000,0.004914986675824548,-0.014524523302109573,0.9205715895658814,-0.3902727630939282,0.027840126305818558,-0.02580745704472065,0.37844908237457275,-0.13230347633361816,1.1180921792984009,10.392365036010743
1713795747,379000000,0.005683682477762609,-0.01520538378998958,0.9198681023473633,-0.3918917788639514,0.02464745193719864,0.009844082407653332,0.2959716320037842,0.35132524371147156,-1.0031704902648926,8.153786239624024
1713795747,401000000,0.005623642706538587,-0.012811633096778232,0.9185005220471482,-0.3951721494478312,0.0262437891215086,0.009844082407653332,0.32470571994781494,0.4111802875995636,0.4740520119667053,9.59270149230957
1713795747,424000000,0.004464228483831355,-0.010544539884757927,0.9169460451635405,-0.39884687989453443,0.024115338921546936,0.04549562186002731,0.3481186628341675,0.3010469973087311,1.338358759880066,11.158509788513184
1713795747,447000000,0.001440880192986127,-0.010070740387332846,0.9157618496796747,-0.40159275232949804,-0.01685732789337635,0.10083533078432083,0.25978797674179077,-0.5967786312103271,0.5458781123161316,10.459402618408204
1713795747,480000000,0.002787706281580845,-0.0069364668116980305,0.9157210497584779,-0.40174503500490055,-0.005150852724909782,-0.014633094891905785,0.010227201506495476,0.25316300988197327,0.16041161119937897,8.089142379760743
1713795747,503000000,0.005372321830697428,-0.007771421541106532,0.9160953376032769,-0.40084919307255185,0.006023511290550232,-0.059862662106752396,-0.08395671844482422,0.6003222465515137,-1.0055646896362305,10.557565269470215
1713795747,524000000,0.007215761394369538,-0.008036610005530834,0.9164726602930814,-0.39995150783868916,0.025711676105856895,0.010908307507634163,-0.09140629321336746,1.1102871894836426,-1.0103530883789062,11.745089111328125
1713795747,547000000,0.008553634356116077,-0.00921442169160448,0.916655355534868,-0.3994807741824828,-0.006747189909219742,0.08380772918462753,-0.041919827461242676,0.614687442779541,-0.7062894105911255,10.751494941711426
1713795747,560000000,0.007977649286642283,-0.010889404958227282,0.9165958913412457,-0.3995869741969351,-0.017921553924679756,0.10296378284692764,0.018208889290690422,-0.09878465533256531,-0.5937619209289551,8.747548637390137
1713795747,603000000,0.004338982773210409,-0.014589180049814621,0.9165036063941627,-0.39973674902423184,-0.01845366694033146,0.036981821060180664,0.005970301106572151,-0.36693525314331055,-0.41898518800735474,9.755507049560547
1713795747,624000000,0.006767677389458682,-0.014047690726524698,0.9164412077176274,-0.3998654445248557,-0.03920605778694153,-0.03272492438554764,0.01608043909072876,0.43991073966026306,-0.3375823497772217,10.727552947998047
1713795747,645000000,0.005306191151540986,-0.012518067492184086,0.9163836560892636,-0.40007016531378375,-0.00036183930933475494,0.005587182007730007,0.01927311345934868,-0.14427450299263,0.16280581057071686,9.736353454589844
1713795747,665000000,0.006214216237211313,-0.014218842042478853,0.9163258219729516,-0.40013272302215264,-0.012068314477801323,0.07156913727521896,0.010227201506495476,0.03768482804298401,-0.34955334663391113,9.793814239501954
1713795747,689000000,0.005083791788883017,-0.017128992864588414,0.9162609943737635,-0.40018313664333055,-0.017389440909028053,0.07316547632217407,0.005438188090920448,-0.3765120506286621,-0.8714893460273743,9.68368106842041
1713795747,701000000,0.005994320412173611,-0.017578099636890453,0.9162111997900855,-0.40026505707488835,0.011344637721776962,0.03272492066025734,0.01927311345934868,0.380055695772171,-0.7445966005325317,9.274272499084473
1713795747,724000000,0.006454723120544618,-0.015285644298971742,0.9160892540407284,-0.4006309576891231,0.002830836921930313,-0.0023945062421262264,0.03523649275302887,0.11908766627311707,-0.148440420627594,9.79620891571045
1713795747,764000000,0.002149509306659062,-0.01259837041458228,0.9160393038477515,-0.40088483942245134,0.03316125273704529,0.04815618321299553,0.011823538690805435,-0.10357305407524109,-0.12689261138439178,9.420319137573243
